answer,input,sentence,trials.thisRepN,trials.thisTrialN,trials.thisN,trials.thisIndex,mouse.x,mouse.y,mouse.leftButton,mouse.midButton,mouse.rightButton,key_resp_3.keys,key_resp_3.rt,key_resp_2.keys,key_resp_2.rt,date,frameRate,expName,session,participant,
,,,,,,,-0.0638888888889,-0.4,1,0,0,,,,,2017_Mar_14_0136,60.2384084655,reading_fluency,001,neww,
,,,,,,,,,,,,space,2.18383812904,,,2017_Mar_14_0136,60.2384084655,reading_fluency,001,neww,
,,,,,,,,,,,,,,space,2.33643817902,2017_Mar_14_0136,60.2384084655,reading_fluency,001,neww,
Y,None,A bird can fly.,0,0,0,0,,,,,,,,,,2017_Mar_14_0136,60.2384084655,reading_fluency,001,neww,
N,None,Cats have five legs.,0,1,1,1,,,,,,,,,,2017_Mar_14_0136,60.2384084655,reading_fluency,001,neww,
Y,None,Some people have long hair,0,2,2,2,,,,,,,,,,2017_Mar_14_0136,60.2384084655,reading_fluency,001,neww,
Y,None,People have teeth.,0,3,3,3,,,,,,,,,,2017_Mar_14_0136,60.2384084655,reading_fluency,001,neww,
N,None,The sky is always brown and yellow.,0,4,4,4,,,,,,,,,,2017_Mar_14_0136,60.2384084655,reading_fluency,001,neww,
Y,None,A clock tells time.,0,5,5,5,,,,,,,,,,2017_Mar_14_0136,60.2384084655,reading_fluency,001,neww,
N,None,The color of grass is red.,0,6,6,6,,,,,,,,,,2017_Mar_14_0136,60.2384084655,reading_fluency,001,neww,
Y,None,A school bus has a driver.,0,7,7,7,,,,,,,,,,2017_Mar_14_0136,60.2384084655,reading_fluency,001,neww,
N,None,People like to drink gum.,0,8,8,8,,,,,,,,,,2017_Mar_14_0136,60.2384084655,reading_fluency,001,neww,
N,None,A butterfly has ten wings.,0,9,9,9,,,,,,,,,,2017_Mar_14_0136,60.2384084655,reading_fluency,001,neww,
N,None,A train goes on the road.,0,10,10,10,,,,,,,,,,2017_Mar_14_0136,60.2384084655,reading_fluency,001,neww,
Y,None,A banana is to eat.,0,11,11,11,,,,,,,,,,2017_Mar_14_0136,60.2384084655,reading_fluency,001,neww,
Y,None,Summer is a season of the year.,0,12,12,12,,,,,,,,,,2017_Mar_14_0136,60.2384084655,reading_fluency,001,neww,
N,None,Ants are very big.,0,13,13,13,,,,,,,,,,2017_Mar_14_0136,60.2384084655,reading_fluency,001,neww,
N,None,A fire is cold.,0,14,14,14,,,,,,,,,,2017_Mar_14_0136,60.2384084655,reading_fluency,001,neww,
N,None,A bus has wings,0,15,15,15,,,,,,,,,,2017_Mar_14_0136,60.2384084655,reading_fluency,001,neww,
N,None,The color of milk is pink.,0,16,16,16,,,,,,,,,,2017_Mar_14_0136,60.2384084655,reading_fluency,001,neww,
N,None,A flower grows in the sky.,0,17,17,17,,,,,,,,,,2017_Mar_14_0136,60.2384084655,reading_fluency,001,neww,
Y,None,A dog may bark at a cat.,0,18,18,18,,,,,,,,,,2017_Mar_14_0136,60.2384084655,reading_fluency,001,neww,
Y,None,A room in a house has walls.,0,19,19,19,,,,,,,,,,2017_Mar_14_0136,60.2384084655,reading_fluency,001,neww,
Y,None,Golf is a game that some people like to play.,0,20,20,20,,,,,,,,,,2017_Mar_14_0136,60.2384084655,reading_fluency,001,neww,
N,None,June is the month after March.,0,21,21,21,,,,,,,,,,2017_Mar_14_0136,60.2384084655,reading_fluency,001,neww,
N,None,Most dogs can fly over the tops of mountains.,0,22,22,22,,,,,,,,,,2017_Mar_14_0136,60.2384084655,reading_fluency,001,neww,
Y,None,Some people like to go swimming on hot days.,0,23,23,23,,,,,,,,,,2017_Mar_14_0136,60.2384084655,reading_fluency,001,neww,
Y,None,Most windows are made of glass.,0,24,24,24,,,,,,,,,,2017_Mar_14_0136,60.2384084655,reading_fluency,001,neww,
Y,None,A pen is for writing.,0,25,25,25,,,,,,,,,,2017_Mar_14_0136,60.2384084655,reading_fluency,001,neww,
N,None,Monkeys live in fish tanks.,0,26,26,26,,,,,,,,,,2017_Mar_14_0136,60.2384084655,reading_fluency,001,neww,
Y,None,An insect may live under a rock.,0,27,27,27,,,,,,,,,,2017_Mar_14_0136,60.2384084655,reading_fluency,001,neww,
N,None,A shoe goes on your head.,0,28,28,28,,,,,,,,,,2017_Mar_14_0136,60.2384084655,reading_fluency,001,neww,
Y,None,A frog may swim in a pond.,0,29,29,29,,,,,,,,,,2017_Mar_14_0136,60.2384084655,reading_fluency,001,neww,
Y,None,A beach by the ocean may have sand.,0,30,30,30,,,,,,,,,,2017_Mar_14_0136,60.2384084655,reading_fluency,001,neww,
N,None,May is the last day of the week.,0,31,31,31,,,,,,,,,,2017_Mar_14_0136,60.2384084655,reading_fluency,001,neww,
N,None,People sit on their hands at the dinner table.,0,32,32,32,,,,,,,,,,2017_Mar_14_0136,60.2384084655,reading_fluency,001,neww,
N,None,You can see only one color in a rainbow.,0,33,33,33,,,,,,,,,,2017_Mar_14_0136,60.2384084655,reading_fluency,001,neww,
Y,None,Cars have four wheels.,0,34,34,34,,,,,,,,,,2017_Mar_14_0136,60.2384084655,reading_fluency,001,neww,
N,None,The sun is smaller than an orange.,0,35,35,35,,,,,,,,,,2017_Mar_14_0136,60.2384084655,reading_fluency,001,neww,
Y,None,A bird may build a nest.,0,36,36,36,,,,,,,,,,2017_Mar_14_0136,60.2384084655,reading_fluency,001,neww,
N,None,All mountains are very flat on top.,0,37,37,37,,,,,,,,,,2017_Mar_14_0136,60.2384084655,reading_fluency,001,neww,
Y,None,You can drink milk through a straw.,0,38,38,38,,,,,,,,,,2017_Mar_14_0136,60.2384084655,reading_fluency,001,neww,
N,None,A map is used to help you find phone numbers.,0,39,39,39,,,,,,,,,,2017_Mar_14_0136,60.2384084655,reading_fluency,001,neww,
Y,None,A hospital has more than one doctor.,0,40,40,40,,,,,,,,,,2017_Mar_14_0136,60.2384084655,reading_fluency,001,neww,
Y,None,Some people eat pie with a fork.,0,41,41,41,,,,,,,,,,2017_Mar_14_0136,60.2384084655,reading_fluency,001,neww,
Y,None,Some little babies cry when they are hungry.,0,42,42,42,,,,,,,,,,2017_Mar_14_0136,60.2384084655,reading_fluency,001,neww,
Y,None,Winter is a season of the year.,0,43,43,43,,,,,,,,,,2017_Mar_14_0136,60.2384084655,reading_fluency,001,neww,
N,None,A table has six arms.,0,44,44,44,,,,,,,,,,2017_Mar_14_0136,60.2384084655,reading_fluency,001,neww,
N,None,People serve dinner on their windows.,0,45,45,45,,,,,,,,,,2017_Mar_14_0136,60.2384084655,reading_fluency,001,neww,
Y,None,Many spiders can spin webs.,0,46,46,46,,,,,,,,,,2017_Mar_14_0136,60.2384084655,reading_fluency,001,neww,
Y,None,Some fish live in the ocean.,0,47,47,47,,,,,,,,,,2017_Mar_14_0136,60.2384084655,reading_fluency,001,neww,
Y,None,Some people buy new homes in small towns.,0,48,48,48,,,,,,,,,,2017_Mar_14_0136,60.2384084655,reading_fluency,001,neww,
Y,None,Some children fly kites on a windy day.,0,49,49,49,,,,,,,,,,2017_Mar_14_0136,60.2384084655,reading_fluency,001,neww,
N,None,A shoe is worn on your ear.,0,50,50,50,,,,,,,,,,2017_Mar_14_0136,60.2384084655,reading_fluency,001,neww,
Y,None,Some children enjoy watching cartoons on television.,0,51,51,51,,,,,,,,,,2017_Mar_14_0136,60.2384084655,reading_fluency,001,neww,
N,None,Snow is often green in color.,0,52,52,52,,,,,,,,,,2017_Mar_14_0136,60.2384084655,reading_fluency,001,neww,
N,None,A monkey is an insect that flies.,0,53,53,53,,,,,,,,,,2017_Mar_14_0136,60.2384084655,reading_fluency,001,neww,
Y,None,A door may have a lock.,0,54,54,54,,,,,,,,,,2017_Mar_14_0136,60.2384084655,reading_fluency,001,neww,
N,None,A hammer if often used to write a story.,0,55,55,55,,,,,,,,,,2017_Mar_14_0136,60.2384084655,reading_fluency,001,neww,
N,None,A plant's roots are above ground.,0,56,56,56,,,,,,,,,,2017_Mar_14_0136,60.2384084655,reading_fluency,001,neww,
Y,None,A dog may fight with another dog.,0,57,57,57,,,,,,,,,,2017_Mar_14_0136,60.2384084655,reading_fluency,001,neww,
N,None,A bicycle needs gas each day.,0,58,58,58,,,,,,,,,,2017_Mar_14_0136,60.2384084655,reading_fluency,001,neww,
N,None,Money is often used to start forest fires. ,0,59,59,59,,,,,,,,,,2017_Mar_14_0136,60.2384084655,reading_fluency,001,neww,
Y,None,One can travel faster on an airplane than on a bicycle.,0,60,60,60,,,,,,,,,,2017_Mar_14_0136,60.2384084655,reading_fluency,001,neww,
N,None,A cook works every day in a bank.,0,61,61,61,,,,,,,,,,2017_Mar_14_0136,60.2384084655,reading_fluency,001,neww,
N,None,Every year all cars need to have new engines.,0,62,62,62,,,,,,,,,,2017_Mar_14_0136,60.2384084655,reading_fluency,001,neww,
N,None,A baseball looks like a square.,0,63,63,63,,,,,,,,,,2017_Mar_14_0136,60.2384084655,reading_fluency,001,neww,
N,None,Doctors spend most of their time driving race cars.,0,64,64,64,,,,,,,,,,2017_Mar_14_0136,60.2384084655,reading_fluency,001,neww,
Y,None,Tennis is a game that some people like to play.,0,65,65,65,,,,,,,,,,2017_Mar_14_0136,60.2384084655,reading_fluency,001,neww,
N,None,Many people place pictures on the floors of their homes.,0,66,66,66,,,,,,,,,,2017_Mar_14_0136,60.2384084655,reading_fluency,001,neww,
N,None,A banker works in a kitchen.,0,67,67,67,,,,,,,,,,2017_Mar_14_0136,60.2384084655,reading_fluency,001,neww,
Y,None,A coat may be hung on a hanger in a closet.,0,68,68,68,,,,,,,,,,2017_Mar_14_0136,60.2384084655,reading_fluency,001,neww,
N,None,Glasses help people to hear.,0,69,69,69,,,,,,,,,,2017_Mar_14_0136,60.2384084655,reading_fluency,001,neww,
N,None,A camera is used to help you find your way.,0,70,70,70,,,,,,,,,,2017_Mar_14_0136,60.2384084655,reading_fluency,001,neww,
N,None,Tires are always flat.,0,71,71,71,,,,,,,,,,2017_Mar_14_0136,60.2384084655,reading_fluency,001,neww,
Y,None,A pitcher maybe used to pour water.,0,72,72,72,,,,,,,,,,2017_Mar_14_0136,60.2384084655,reading_fluency,001,neww,
N,None,A cup must have a lid.,0,73,73,73,,,,,,,,,,2017_Mar_14_0136,60.2384084655,reading_fluency,001,neww,
N,None,An elevator goes up to the moon.,0,74,74,74,,,,,,,,,,2017_Mar_14_0136,60.2384084655,reading_fluency,001,neww,
N,None,Most clouds are brown and furry.,0,75,75,75,,,,,,,,,,2017_Mar_14_0136,60.2384084655,reading_fluency,001,neww,
Y,None,There are many different types of jewelry.,0,76,76,76,,,,,,,,,,2017_Mar_14_0136,60.2384084655,reading_fluency,001,neww,
N,None,Most people use keys to comb their hair.,0,77,77,77,,,,,,,,,,2017_Mar_14_0136,60.2384084655,reading_fluency,001,neww,
Y,None,A calendar has both the weeks and days.,0,78,78,78,,,,,,,,,,2017_Mar_14_0136,60.2384084655,reading_fluency,001,neww,
Y,None,Some people like to go to another country for vacation.,0,79,79,79,,,,,,,,,,2017_Mar_14_0136,60.2384084655,reading_fluency,001,neww,
Y,None,A pencil may have an eraser on the end.,0,80,80,80,,,,,,,,,,2017_Mar_14_0136,60.2384084655,reading_fluency,001,neww,
N,None,A neighbor is a person who lives very far away.,0,81,81,81,,,,,,,,,,2017_Mar_14_0136,60.2384084655,reading_fluency,001,neww,
N,None,Bakes potatoes grow on trees.,0,82,82,82,,,,,,,,,,2017_Mar_14_0136,60.2384084655,reading_fluency,001,neww,
N,None,A classroom teacher works all day in a grocery store.,0,83,83,83,,,,,,,,,,2017_Mar_14_0136,60.2384084655,reading_fluency,001,neww,
Y,None,A flashlight may need batteries to operate.,0,84,84,84,,,,,,,,,,2017_Mar_14_0136,60.2384084655,reading_fluency,001,neww,
Y,None,Some people rent apartments in large cities.,0,85,85,85,,,,,,,,,,2017_Mar_14_0136,60.2384084655,reading_fluency,001,neww,
N,None,A goat talks in complete sentences. ,0,86,86,86,,,,,,,,,,2017_Mar_14_0136,60.2384084655,reading_fluency,001,neww,
N,None,All people avoid doctors when they feel sick.,0,87,87,87,,,,,,,,,,2017_Mar_14_0136,60.2384084655,reading_fluency,001,neww,
Y,None,A carpenter builds things with wood.,0,88,88,88,,,,,,,,,,2017_Mar_14_0136,60.2384084655,reading_fluency,001,neww,
Y,None,Newly released movies are often shown at theaters.,0,89,89,89,,,,,,,,,,2017_Mar_14_0136,60.2384084655,reading_fluency,001,neww,
N,None,A magazine has only one page.,0,90,90,90,,,,,,,,,,2017_Mar_14_0136,60.2384084655,reading_fluency,001,neww,
Y,None,A photo album may hold many pictures.,0,91,91,91,,,,,,,,,,2017_Mar_14_0136,60.2384084655,reading_fluency,001,neww,
N,None,Most dogs can climb straight up steep walls.,0,92,92,92,,,,,,,,,,2017_Mar_14_0136,60.2384084655,reading_fluency,001,neww,
Y,None,A fence can provide a border around a property.,0,93,93,93,,,,,,,,,,2017_Mar_14_0136,60.2384084655,reading_fluency,001,neww,
N,None,Most modern houses do not have any doors or windows.,0,94,94,94,,,,,,,,,,2017_Mar_14_0136,60.2384084655,reading_fluency,001,neww,
Y,None,Some people make hotel reservations for only one night.,0,95,95,95,,,,,,,,,,2017_Mar_14_0136,60.2384084655,reading_fluency,001,neww,
Y,None,A talented athlete may enjoy several different sports.,0,96,96,96,,,,,,,,,,2017_Mar_14_0136,60.2384084655,reading_fluency,001,neww,
Y,None,People may use a map to find certain locations.,0,97,97,97,,,,,,,,,,2017_Mar_14_0136,60.2384084655,reading_fluency,001,neww,
Y,None,A bird can fly.,1,0,98,0,,,,,,,,,,2017_Mar_14_0136,60.2384084655,reading_fluency,001,neww,
N,None,Cats have five legs.,1,1,99,1,,,,,,,,,,2017_Mar_14_0136,60.2384084655,reading_fluency,001,neww,
Y,None,Some people have long hair,1,2,100,2,,,,,,,,,,2017_Mar_14_0136,60.2384084655,reading_fluency,001,neww,
Y,None,People have teeth.,1,3,101,3,,,,,,,,,,2017_Mar_14_0136,60.2384084655,reading_fluency,001,neww,
N,None,The sky is always brown and yellow.,1,4,102,4,,,,,,,,,,2017_Mar_14_0136,60.2384084655,reading_fluency,001,neww,
Y,None,A clock tells time.,1,5,103,5,,,,,,,,,,2017_Mar_14_0136,60.2384084655,reading_fluency,001,neww,
N,None,The color of grass is red.,1,6,104,6,,,,,,,,,,2017_Mar_14_0136,60.2384084655,reading_fluency,001,neww,
Y,None,A school bus has a driver.,1,7,105,7,,,,,,,,,,2017_Mar_14_0136,60.2384084655,reading_fluency,001,neww,
N,None,People like to drink gum.,1,8,106,8,,,,,,,,,,2017_Mar_14_0136,60.2384084655,reading_fluency,001,neww,
N,None,A butterfly has ten wings.,1,9,107,9,,,,,,,,,,2017_Mar_14_0136,60.2384084655,reading_fluency,001,neww,
N,None,A train goes on the road.,1,10,108,10,,,,,,,,,,2017_Mar_14_0136,60.2384084655,reading_fluency,001,neww,
Y,None,A banana is to eat.,1,11,109,11,,,,,,,,,,2017_Mar_14_0136,60.2384084655,reading_fluency,001,neww,
Y,None,Summer is a season of the year.,1,12,110,12,,,,,,,,,,2017_Mar_14_0136,60.2384084655,reading_fluency,001,neww,
N,None,Ants are very big.,1,13,111,13,,,,,,,,,,2017_Mar_14_0136,60.2384084655,reading_fluency,001,neww,
N,None,A fire is cold.,1,14,112,14,,,,,,,,,,2017_Mar_14_0136,60.2384084655,reading_fluency,001,neww,
N,None,A bus has wings,1,15,113,15,,,,,,,,,,2017_Mar_14_0136,60.2384084655,reading_fluency,001,neww,
N,None,The color of milk is pink.,1,16,114,16,,,,,,,,,,2017_Mar_14_0136,60.2384084655,reading_fluency,001,neww,
N,None,A flower grows in the sky.,1,17,115,17,,,,,,,,,,2017_Mar_14_0136,60.2384084655,reading_fluency,001,neww,
Y,None,A dog may bark at a cat.,1,18,116,18,,,,,,,,,,2017_Mar_14_0136,60.2384084655,reading_fluency,001,neww,
Y,None,A room in a house has walls.,1,19,117,19,,,,,,,,,,2017_Mar_14_0136,60.2384084655,reading_fluency,001,neww,
Y,None,Golf is a game that some people like to play.,1,20,118,20,,,,,,,,,,2017_Mar_14_0136,60.2384084655,reading_fluency,001,neww,
N,None,June is the month after March.,1,21,119,21,,,,,,,,,,2017_Mar_14_0136,60.2384084655,reading_fluency,001,neww,
N,None,Most dogs can fly over the tops of mountains.,1,22,120,22,,,,,,,,,,2017_Mar_14_0136,60.2384084655,reading_fluency,001,neww,
Y,None,Some people like to go swimming on hot days.,1,23,121,23,,,,,,,,,,2017_Mar_14_0136,60.2384084655,reading_fluency,001,neww,
Y,None,Most windows are made of glass.,1,24,122,24,,,,,,,,,,2017_Mar_14_0136,60.2384084655,reading_fluency,001,neww,
Y,None,A pen is for writing.,1,25,123,25,,,,,,,,,,2017_Mar_14_0136,60.2384084655,reading_fluency,001,neww,
N,None,Monkeys live in fish tanks.,1,26,124,26,,,,,,,,,,2017_Mar_14_0136,60.2384084655,reading_fluency,001,neww,
Y,None,An insect may live under a rock.,1,27,125,27,,,,,,,,,,2017_Mar_14_0136,60.2384084655,reading_fluency,001,neww,
N,None,A shoe goes on your head.,1,28,126,28,,,,,,,,,,2017_Mar_14_0136,60.2384084655,reading_fluency,001,neww,
Y,None,A frog may swim in a pond.,1,29,127,29,,,,,,,,,,2017_Mar_14_0136,60.2384084655,reading_fluency,001,neww,
Y,None,A beach by the ocean may have sand.,1,30,128,30,,,,,,,,,,2017_Mar_14_0136,60.2384084655,reading_fluency,001,neww,
N,None,May is the last day of the week.,1,31,129,31,,,,,,,,,,2017_Mar_14_0136,60.2384084655,reading_fluency,001,neww,
N,None,People sit on their hands at the dinner table.,1,32,130,32,,,,,,,,,,2017_Mar_14_0136,60.2384084655,reading_fluency,001,neww,
N,None,You can see only one color in a rainbow.,1,33,131,33,,,,,,,,,,2017_Mar_14_0136,60.2384084655,reading_fluency,001,neww,
Y,None,Cars have four wheels.,1,34,132,34,,,,,,,,,,2017_Mar_14_0136,60.2384084655,reading_fluency,001,neww,
N,None,The sun is smaller than an orange.,1,35,133,35,,,,,,,,,,2017_Mar_14_0136,60.2384084655,reading_fluency,001,neww,
Y,None,A bird may build a nest.,1,36,134,36,,,,,,,,,,2017_Mar_14_0136,60.2384084655,reading_fluency,001,neww,
N,None,All mountains are very flat on top.,1,37,135,37,,,,,,,,,,2017_Mar_14_0136,60.2384084655,reading_fluency,001,neww,
Y,None,You can drink milk through a straw.,1,38,136,38,,,,,,,,,,2017_Mar_14_0136,60.2384084655,reading_fluency,001,neww,
N,None,A map is used to help you find phone numbers.,1,39,137,39,,,,,,,,,,2017_Mar_14_0136,60.2384084655,reading_fluency,001,neww,
Y,None,A hospital has more than one doctor.,1,40,138,40,,,,,,,,,,2017_Mar_14_0136,60.2384084655,reading_fluency,001,neww,
Y,None,Some people eat pie with a fork.,1,41,139,41,,,,,,,,,,2017_Mar_14_0136,60.2384084655,reading_fluency,001,neww,
Y,None,Some little babies cry when they are hungry.,1,42,140,42,,,,,,,,,,2017_Mar_14_0136,60.2384084655,reading_fluency,001,neww,
Y,None,Winter is a season of the year.,1,43,141,43,,,,,,,,,,2017_Mar_14_0136,60.2384084655,reading_fluency,001,neww,
N,None,A table has six arms.,1,44,142,44,,,,,,,,,,2017_Mar_14_0136,60.2384084655,reading_fluency,001,neww,
N,None,People serve dinner on their windows.,1,45,143,45,,,,,,,,,,2017_Mar_14_0136,60.2384084655,reading_fluency,001,neww,
Y,None,Many spiders can spin webs.,1,46,144,46,,,,,,,,,,2017_Mar_14_0136,60.2384084655,reading_fluency,001,neww,
Y,None,Some fish live in the ocean.,1,47,145,47,,,,,,,,,,2017_Mar_14_0136,60.2384084655,reading_fluency,001,neww,
Y,None,Some people buy new homes in small towns.,1,48,146,48,,,,,,,,,,2017_Mar_14_0136,60.2384084655,reading_fluency,001,neww,
Y,None,Some children fly kites on a windy day.,1,49,147,49,,,,,,,,,,2017_Mar_14_0136,60.2384084655,reading_fluency,001,neww,
N,None,A shoe is worn on your ear.,1,50,148,50,,,,,,,,,,2017_Mar_14_0136,60.2384084655,reading_fluency,001,neww,
Y,None,Some children enjoy watching cartoons on television.,1,51,149,51,,,,,,,,,,2017_Mar_14_0136,60.2384084655,reading_fluency,001,neww,
N,None,Snow is often green in color.,1,52,150,52,,,,,,,,,,2017_Mar_14_0136,60.2384084655,reading_fluency,001,neww,
N,None,A monkey is an insect that flies.,1,53,151,53,,,,,,,,,,2017_Mar_14_0136,60.2384084655,reading_fluency,001,neww,
Y,None,A door may have a lock.,1,54,152,54,,,,,,,,,,2017_Mar_14_0136,60.2384084655,reading_fluency,001,neww,
N,None,A hammer if often used to write a story.,1,55,153,55,,,,,,,,,,2017_Mar_14_0136,60.2384084655,reading_fluency,001,neww,
N,None,A plant's roots are above ground.,1,56,154,56,,,,,,,,,,2017_Mar_14_0136,60.2384084655,reading_fluency,001,neww,
Y,None,A dog may fight with another dog.,1,57,155,57,,,,,,,,,,2017_Mar_14_0136,60.2384084655,reading_fluency,001,neww,
N,None,A bicycle needs gas each day.,1,58,156,58,,,,,,,,,,2017_Mar_14_0136,60.2384084655,reading_fluency,001,neww,
N,None,Money is often used to start forest fires. ,1,59,157,59,,,,,,,,,,2017_Mar_14_0136,60.2384084655,reading_fluency,001,neww,
Y,None,One can travel faster on an airplane than on a bicycle.,1,60,158,60,,,,,,,,,,2017_Mar_14_0136,60.2384084655,reading_fluency,001,neww,
N,None,A cook works every day in a bank.,1,61,159,61,,,,,,,,,,2017_Mar_14_0136,60.2384084655,reading_fluency,001,neww,
N,None,Every year all cars need to have new engines.,1,62,160,62,,,,,,,,,,2017_Mar_14_0136,60.2384084655,reading_fluency,001,neww,
N,None,A baseball looks like a square.,1,63,161,63,,,,,,,,,,2017_Mar_14_0136,60.2384084655,reading_fluency,001,neww,
N,None,Doctors spend most of their time driving race cars.,1,64,162,64,,,,,,,,,,2017_Mar_14_0136,60.2384084655,reading_fluency,001,neww,
Y,None,Tennis is a game that some people like to play.,1,65,163,65,,,,,,,,,,2017_Mar_14_0136,60.2384084655,reading_fluency,001,neww,
N,None,Many people place pictures on the floors of their homes.,1,66,164,66,,,,,,,,,,2017_Mar_14_0136,60.2384084655,reading_fluency,001,neww,
N,None,A banker works in a kitchen.,1,67,165,67,,,,,,,,,,2017_Mar_14_0136,60.2384084655,reading_fluency,001,neww,
Y,None,A coat may be hung on a hanger in a closet.,1,68,166,68,,,,,,,,,,2017_Mar_14_0136,60.2384084655,reading_fluency,001,neww,
N,None,Glasses help people to hear.,1,69,167,69,,,,,,,,,,2017_Mar_14_0136,60.2384084655,reading_fluency,001,neww,
N,None,A camera is used to help you find your way.,1,70,168,70,,,,,,,,,,2017_Mar_14_0136,60.2384084655,reading_fluency,001,neww,
N,None,Tires are always flat.,1,71,169,71,,,,,,,,,,2017_Mar_14_0136,60.2384084655,reading_fluency,001,neww,
Y,None,A pitcher maybe used to pour water.,1,72,170,72,,,,,,,,,,2017_Mar_14_0136,60.2384084655,reading_fluency,001,neww,
N,None,A cup must have a lid.,1,73,171,73,,,,,,,,,,2017_Mar_14_0136,60.2384084655,reading_fluency,001,neww,
N,None,An elevator goes up to the moon.,1,74,172,74,,,,,,,,,,2017_Mar_14_0136,60.2384084655,reading_fluency,001,neww,
N,None,Most clouds are brown and furry.,1,75,173,75,,,,,,,,,,2017_Mar_14_0136,60.2384084655,reading_fluency,001,neww,
Y,None,There are many different types of jewelry.,1,76,174,76,,,,,,,,,,2017_Mar_14_0136,60.2384084655,reading_fluency,001,neww,
N,None,Most people use keys to comb their hair.,1,77,175,77,,,,,,,,,,2017_Mar_14_0136,60.2384084655,reading_fluency,001,neww,
Y,None,A calendar has both the weeks and days.,1,78,176,78,,,,,,,,,,2017_Mar_14_0136,60.2384084655,reading_fluency,001,neww,
Y,None,Some people like to go to another country for vacation.,1,79,177,79,,,,,,,,,,2017_Mar_14_0136,60.2384084655,reading_fluency,001,neww,
Y,None,A pencil may have an eraser on the end.,1,80,178,80,,,,,,,,,,2017_Mar_14_0136,60.2384084655,reading_fluency,001,neww,
N,None,A neighbor is a person who lives very far away.,1,81,179,81,,,,,,,,,,2017_Mar_14_0136,60.2384084655,reading_fluency,001,neww,
N,None,Bakes potatoes grow on trees.,1,82,180,82,,,,,,,,,,2017_Mar_14_0136,60.2384084655,reading_fluency,001,neww,
N,None,A classroom teacher works all day in a grocery store.,1,83,181,83,,,,,,,,,,2017_Mar_14_0136,60.2384084655,reading_fluency,001,neww,
Y,None,A flashlight may need batteries to operate.,1,84,182,84,,,,,,,,,,2017_Mar_14_0136,60.2384084655,reading_fluency,001,neww,
Y,None,Some people rent apartments in large cities.,1,85,183,85,,,,,,,,,,2017_Mar_14_0136,60.2384084655,reading_fluency,001,neww,
N,None,A goat talks in complete sentences. ,1,86,184,86,,,,,,,,,,2017_Mar_14_0136,60.2384084655,reading_fluency,001,neww,
N,None,All people avoid doctors when they feel sick.,1,87,185,87,,,,,,,,,,2017_Mar_14_0136,60.2384084655,reading_fluency,001,neww,
Y,None,A carpenter builds things with wood.,1,88,186,88,,,,,,,,,,2017_Mar_14_0136,60.2384084655,reading_fluency,001,neww,
Y,None,Newly released movies are often shown at theaters.,1,89,187,89,,,,,,,,,,2017_Mar_14_0136,60.2384084655,reading_fluency,001,neww,
N,None,A magazine has only one page.,1,90,188,90,,,,,,,,,,2017_Mar_14_0136,60.2384084655,reading_fluency,001,neww,
Y,None,A photo album may hold many pictures.,1,91,189,91,,,,,,,,,,2017_Mar_14_0136,60.2384084655,reading_fluency,001,neww,
N,None,Most dogs can climb straight up steep walls.,1,92,190,92,,,,,,,,,,2017_Mar_14_0136,60.2384084655,reading_fluency,001,neww,
Y,None,A fence can provide a border around a property.,1,93,191,93,,,,,,,,,,2017_Mar_14_0136,60.2384084655,reading_fluency,001,neww,
N,None,Most modern houses do not have any doors or windows.,1,94,192,94,,,,,,,,,,2017_Mar_14_0136,60.2384084655,reading_fluency,001,neww,
Y,None,Some people make hotel reservations for only one night.,1,95,193,95,,,,,,,,,,2017_Mar_14_0136,60.2384084655,reading_fluency,001,neww,
Y,None,A talented athlete may enjoy several different sports.,1,96,194,96,,,,,,,,,,2017_Mar_14_0136,60.2384084655,reading_fluency,001,neww,
Y,None,People may use a map to find certain locations.,1,97,195,97,,,,,,,,,,2017_Mar_14_0136,60.2384084655,reading_fluency,001,neww,
Y,None,A bird can fly.,2,0,196,0,,,,,,,,,,2017_Mar_14_0136,60.2384084655,reading_fluency,001,neww,
N,None,Cats have five legs.,2,1,197,1,,,,,,,,,,2017_Mar_14_0136,60.2384084655,reading_fluency,001,neww,
Y,None,Some people have long hair,2,2,198,2,,,,,,,,,,2017_Mar_14_0136,60.2384084655,reading_fluency,001,neww,
Y,None,People have teeth.,2,3,199,3,,,,,,,,,,2017_Mar_14_0136,60.2384084655,reading_fluency,001,neww,
N,None,The sky is always brown and yellow.,2,4,200,4,,,,,,,,,,2017_Mar_14_0136,60.2384084655,reading_fluency,001,neww,
Y,None,A clock tells time.,2,5,201,5,,,,,,,,,,2017_Mar_14_0136,60.2384084655,reading_fluency,001,neww,
N,None,The color of grass is red.,2,6,202,6,,,,,,,,,,2017_Mar_14_0136,60.2384084655,reading_fluency,001,neww,
Y,None,A school bus has a driver.,2,7,203,7,,,,,,,,,,2017_Mar_14_0136,60.2384084655,reading_fluency,001,neww,
N,None,People like to drink gum.,2,8,204,8,,,,,,,,,,2017_Mar_14_0136,60.2384084655,reading_fluency,001,neww,
N,None,A butterfly has ten wings.,2,9,205,9,,,,,,,,,,2017_Mar_14_0136,60.2384084655,reading_fluency,001,neww,
N,None,A train goes on the road.,2,10,206,10,,,,,,,,,,2017_Mar_14_0136,60.2384084655,reading_fluency,001,neww,
Y,None,A banana is to eat.,2,11,207,11,,,,,,,,,,2017_Mar_14_0136,60.2384084655,reading_fluency,001,neww,
Y,None,Summer is a season of the year.,2,12,208,12,,,,,,,,,,2017_Mar_14_0136,60.2384084655,reading_fluency,001,neww,
N,None,Ants are very big.,2,13,209,13,,,,,,,,,,2017_Mar_14_0136,60.2384084655,reading_fluency,001,neww,
N,None,A fire is cold.,2,14,210,14,,,,,,,,,,2017_Mar_14_0136,60.2384084655,reading_fluency,001,neww,
N,None,A bus has wings,2,15,211,15,,,,,,,,,,2017_Mar_14_0136,60.2384084655,reading_fluency,001,neww,
N,None,The color of milk is pink.,2,16,212,16,,,,,,,,,,2017_Mar_14_0136,60.2384084655,reading_fluency,001,neww,
N,None,A flower grows in the sky.,2,17,213,17,,,,,,,,,,2017_Mar_14_0136,60.2384084655,reading_fluency,001,neww,
Y,None,A dog may bark at a cat.,2,18,214,18,,,,,,,,,,2017_Mar_14_0136,60.2384084655,reading_fluency,001,neww,
Y,None,A room in a house has walls.,2,19,215,19,,,,,,,,,,2017_Mar_14_0136,60.2384084655,reading_fluency,001,neww,
Y,None,Golf is a game that some people like to play.,2,20,216,20,,,,,,,,,,2017_Mar_14_0136,60.2384084655,reading_fluency,001,neww,
N,None,June is the month after March.,2,21,217,21,,,,,,,,,,2017_Mar_14_0136,60.2384084655,reading_fluency,001,neww,
N,None,Most dogs can fly over the tops of mountains.,2,22,218,22,,,,,,,,,,2017_Mar_14_0136,60.2384084655,reading_fluency,001,neww,
Y,None,Some people like to go swimming on hot days.,2,23,219,23,,,,,,,,,,2017_Mar_14_0136,60.2384084655,reading_fluency,001,neww,
Y,None,Most windows are made of glass.,2,24,220,24,,,,,,,,,,2017_Mar_14_0136,60.2384084655,reading_fluency,001,neww,
Y,None,A pen is for writing.,2,25,221,25,,,,,,,,,,2017_Mar_14_0136,60.2384084655,reading_fluency,001,neww,
N,None,Monkeys live in fish tanks.,2,26,222,26,,,,,,,,,,2017_Mar_14_0136,60.2384084655,reading_fluency,001,neww,
Y,None,An insect may live under a rock.,2,27,223,27,,,,,,,,,,2017_Mar_14_0136,60.2384084655,reading_fluency,001,neww,
N,None,A shoe goes on your head.,2,28,224,28,,,,,,,,,,2017_Mar_14_0136,60.2384084655,reading_fluency,001,neww,
Y,None,A frog may swim in a pond.,2,29,225,29,,,,,,,,,,2017_Mar_14_0136,60.2384084655,reading_fluency,001,neww,
Y,None,A beach by the ocean may have sand.,2,30,226,30,,,,,,,,,,2017_Mar_14_0136,60.2384084655,reading_fluency,001,neww,
N,None,May is the last day of the week.,2,31,227,31,,,,,,,,,,2017_Mar_14_0136,60.2384084655,reading_fluency,001,neww,
N,None,People sit on their hands at the dinner table.,2,32,228,32,,,,,,,,,,2017_Mar_14_0136,60.2384084655,reading_fluency,001,neww,
N,None,You can see only one color in a rainbow.,2,33,229,33,,,,,,,,,,2017_Mar_14_0136,60.2384084655,reading_fluency,001,neww,
Y,None,Cars have four wheels.,2,34,230,34,,,,,,,,,,2017_Mar_14_0136,60.2384084655,reading_fluency,001,neww,
N,None,The sun is smaller than an orange.,2,35,231,35,,,,,,,,,,2017_Mar_14_0136,60.2384084655,reading_fluency,001,neww,
Y,None,A bird may build a nest.,2,36,232,36,,,,,,,,,,2017_Mar_14_0136,60.2384084655,reading_fluency,001,neww,
N,None,All mountains are very flat on top.,2,37,233,37,,,,,,,,,,2017_Mar_14_0136,60.2384084655,reading_fluency,001,neww,
Y,None,You can drink milk through a straw.,2,38,234,38,,,,,,,,,,2017_Mar_14_0136,60.2384084655,reading_fluency,001,neww,
N,None,A map is used to help you find phone numbers.,2,39,235,39,,,,,,,,,,2017_Mar_14_0136,60.2384084655,reading_fluency,001,neww,
Y,None,A hospital has more than one doctor.,2,40,236,40,,,,,,,,,,2017_Mar_14_0136,60.2384084655,reading_fluency,001,neww,
Y,None,Some people eat pie with a fork.,2,41,237,41,,,,,,,,,,2017_Mar_14_0136,60.2384084655,reading_fluency,001,neww,
Y,None,Some little babies cry when they are hungry.,2,42,238,42,,,,,,,,,,2017_Mar_14_0136,60.2384084655,reading_fluency,001,neww,
Y,None,Winter is a season of the year.,2,43,239,43,,,,,,,,,,2017_Mar_14_0136,60.2384084655,reading_fluency,001,neww,
N,None,A table has six arms.,2,44,240,44,,,,,,,,,,2017_Mar_14_0136,60.2384084655,reading_fluency,001,neww,
N,None,People serve dinner on their windows.,2,45,241,45,,,,,,,,,,2017_Mar_14_0136,60.2384084655,reading_fluency,001,neww,
Y,None,Many spiders can spin webs.,2,46,242,46,,,,,,,,,,2017_Mar_14_0136,60.2384084655,reading_fluency,001,neww,
Y,None,Some fish live in the ocean.,2,47,243,47,,,,,,,,,,2017_Mar_14_0136,60.2384084655,reading_fluency,001,neww,
Y,None,Some people buy new homes in small towns.,2,48,244,48,,,,,,,,,,2017_Mar_14_0136,60.2384084655,reading_fluency,001,neww,
Y,None,Some children fly kites on a windy day.,2,49,245,49,,,,,,,,,,2017_Mar_14_0136,60.2384084655,reading_fluency,001,neww,
N,None,A shoe is worn on your ear.,2,50,246,50,,,,,,,,,,2017_Mar_14_0136,60.2384084655,reading_fluency,001,neww,
Y,None,Some children enjoy watching cartoons on television.,2,51,247,51,,,,,,,,,,2017_Mar_14_0136,60.2384084655,reading_fluency,001,neww,
N,None,Snow is often green in color.,2,52,248,52,,,,,,,,,,2017_Mar_14_0136,60.2384084655,reading_fluency,001,neww,
N,None,A monkey is an insect that flies.,2,53,249,53,,,,,,,,,,2017_Mar_14_0136,60.2384084655,reading_fluency,001,neww,
Y,None,A door may have a lock.,2,54,250,54,,,,,,,,,,2017_Mar_14_0136,60.2384084655,reading_fluency,001,neww,
N,None,A hammer if often used to write a story.,2,55,251,55,,,,,,,,,,2017_Mar_14_0136,60.2384084655,reading_fluency,001,neww,
N,None,A plant's roots are above ground.,2,56,252,56,,,,,,,,,,2017_Mar_14_0136,60.2384084655,reading_fluency,001,neww,
Y,None,A dog may fight with another dog.,2,57,253,57,,,,,,,,,,2017_Mar_14_0136,60.2384084655,reading_fluency,001,neww,
N,None,A bicycle needs gas each day.,2,58,254,58,,,,,,,,,,2017_Mar_14_0136,60.2384084655,reading_fluency,001,neww,
N,None,Money is often used to start forest fires. ,2,59,255,59,,,,,,,,,,2017_Mar_14_0136,60.2384084655,reading_fluency,001,neww,
Y,None,One can travel faster on an airplane than on a bicycle.,2,60,256,60,,,,,,,,,,2017_Mar_14_0136,60.2384084655,reading_fluency,001,neww,
N,None,A cook works every day in a bank.,2,61,257,61,,,,,,,,,,2017_Mar_14_0136,60.2384084655,reading_fluency,001,neww,
N,None,Every year all cars need to have new engines.,2,62,258,62,,,,,,,,,,2017_Mar_14_0136,60.2384084655,reading_fluency,001,neww,
N,None,A baseball looks like a square.,2,63,259,63,,,,,,,,,,2017_Mar_14_0136,60.2384084655,reading_fluency,001,neww,
N,None,Doctors spend most of their time driving race cars.,2,64,260,64,,,,,,,,,,2017_Mar_14_0136,60.2384084655,reading_fluency,001,neww,
Y,None,Tennis is a game that some people like to play.,2,65,261,65,,,,,,,,,,2017_Mar_14_0136,60.2384084655,reading_fluency,001,neww,
N,None,Many people place pictures on the floors of their homes.,2,66,262,66,,,,,,,,,,2017_Mar_14_0136,60.2384084655,reading_fluency,001,neww,
N,None,A banker works in a kitchen.,2,67,263,67,,,,,,,,,,2017_Mar_14_0136,60.2384084655,reading_fluency,001,neww,
Y,None,A coat may be hung on a hanger in a closet.,2,68,264,68,,,,,,,,,,2017_Mar_14_0136,60.2384084655,reading_fluency,001,neww,
N,None,Glasses help people to hear.,2,69,265,69,,,,,,,,,,2017_Mar_14_0136,60.2384084655,reading_fluency,001,neww,
N,None,A camera is used to help you find your way.,2,70,266,70,,,,,,,,,,2017_Mar_14_0136,60.2384084655,reading_fluency,001,neww,
N,None,Tires are always flat.,2,71,267,71,,,,,,,,,,2017_Mar_14_0136,60.2384084655,reading_fluency,001,neww,
Y,None,A pitcher maybe used to pour water.,2,72,268,72,,,,,,,,,,2017_Mar_14_0136,60.2384084655,reading_fluency,001,neww,
N,None,A cup must have a lid.,2,73,269,73,,,,,,,,,,2017_Mar_14_0136,60.2384084655,reading_fluency,001,neww,
N,None,An elevator goes up to the moon.,2,74,270,74,,,,,,,,,,2017_Mar_14_0136,60.2384084655,reading_fluency,001,neww,
N,None,Most clouds are brown and furry.,2,75,271,75,,,,,,,,,,2017_Mar_14_0136,60.2384084655,reading_fluency,001,neww,
Y,None,There are many different types of jewelry.,2,76,272,76,,,,,,,,,,2017_Mar_14_0136,60.2384084655,reading_fluency,001,neww,
N,None,Most people use keys to comb their hair.,2,77,273,77,,,,,,,,,,2017_Mar_14_0136,60.2384084655,reading_fluency,001,neww,
Y,None,A calendar has both the weeks and days.,2,78,274,78,,,,,,,,,,2017_Mar_14_0136,60.2384084655,reading_fluency,001,neww,
Y,None,Some people like to go to another country for vacation.,2,79,275,79,,,,,,,,,,2017_Mar_14_0136,60.2384084655,reading_fluency,001,neww,
Y,None,A pencil may have an eraser on the end.,2,80,276,80,,,,,,,,,,2017_Mar_14_0136,60.2384084655,reading_fluency,001,neww,
N,None,A neighbor is a person who lives very far away.,2,81,277,81,,,,,,,,,,2017_Mar_14_0136,60.2384084655,reading_fluency,001,neww,
N,None,Bakes potatoes grow on trees.,2,82,278,82,,,,,,,,,,2017_Mar_14_0136,60.2384084655,reading_fluency,001,neww,
N,None,A classroom teacher works all day in a grocery store.,2,83,279,83,,,,,,,,,,2017_Mar_14_0136,60.2384084655,reading_fluency,001,neww,
Y,None,A flashlight may need batteries to operate.,2,84,280,84,,,,,,,,,,2017_Mar_14_0136,60.2384084655,reading_fluency,001,neww,
Y,None,Some people rent apartments in large cities.,2,85,281,85,,,,,,,,,,2017_Mar_14_0136,60.2384084655,reading_fluency,001,neww,
N,None,A goat talks in complete sentences. ,2,86,282,86,,,,,,,,,,2017_Mar_14_0136,60.2384084655,reading_fluency,001,neww,
N,None,All people avoid doctors when they feel sick.,2,87,283,87,,,,,,,,,,2017_Mar_14_0136,60.2384084655,reading_fluency,001,neww,
Y,None,A carpenter builds things with wood.,2,88,284,88,,,,,,,,,,2017_Mar_14_0136,60.2384084655,reading_fluency,001,neww,
Y,None,Newly released movies are often shown at theaters.,2,89,285,89,,,,,,,,,,2017_Mar_14_0136,60.2384084655,reading_fluency,001,neww,
N,None,A magazine has only one page.,2,90,286,90,,,,,,,,,,2017_Mar_14_0136,60.2384084655,reading_fluency,001,neww,
Y,None,A photo album may hold many pictures.,2,91,287,91,,,,,,,,,,2017_Mar_14_0136,60.2384084655,reading_fluency,001,neww,
N,None,Most dogs can climb straight up steep walls.,2,92,288,92,,,,,,,,,,2017_Mar_14_0136,60.2384084655,reading_fluency,001,neww,
Y,None,A fence can provide a border around a property.,2,93,289,93,,,,,,,,,,2017_Mar_14_0136,60.2384084655,reading_fluency,001,neww,
N,None,Most modern houses do not have any doors or windows.,2,94,290,94,,,,,,,,,,2017_Mar_14_0136,60.2384084655,reading_fluency,001,neww,
Y,None,Some people make hotel reservations for only one night.,2,95,291,95,,,,,,,,,,2017_Mar_14_0136,60.2384084655,reading_fluency,001,neww,
Y,None,A talented athlete may enjoy several different sports.,2,96,292,96,,,,,,,,,,2017_Mar_14_0136,60.2384084655,reading_fluency,001,neww,
Y,None,People may use a map to find certain locations.,2,97,293,97,,,,,,,,,,2017_Mar_14_0136,60.2384084655,reading_fluency,001,neww,
Y,None,A bird can fly.,3,0,294,0,,,,,,,,,,2017_Mar_14_0136,60.2384084655,reading_fluency,001,neww,
N,None,Cats have five legs.,3,1,295,1,,,,,,,,,,2017_Mar_14_0136,60.2384084655,reading_fluency,001,neww,
Y,None,Some people have long hair,3,2,296,2,,,,,,,,,,2017_Mar_14_0136,60.2384084655,reading_fluency,001,neww,
Y,None,People have teeth.,3,3,297,3,,,,,,,,,,2017_Mar_14_0136,60.2384084655,reading_fluency,001,neww,
N,None,The sky is always brown and yellow.,3,4,298,4,,,,,,,,,,2017_Mar_14_0136,60.2384084655,reading_fluency,001,neww,
Y,None,A clock tells time.,3,5,299,5,,,,,,,,,,2017_Mar_14_0136,60.2384084655,reading_fluency,001,neww,
N,None,The color of grass is red.,3,6,300,6,,,,,,,,,,2017_Mar_14_0136,60.2384084655,reading_fluency,001,neww,
Y,None,A school bus has a driver.,3,7,301,7,,,,,,,,,,2017_Mar_14_0136,60.2384084655,reading_fluency,001,neww,
N,None,People like to drink gum.,3,8,302,8,,,,,,,,,,2017_Mar_14_0136,60.2384084655,reading_fluency,001,neww,
N,None,A butterfly has ten wings.,3,9,303,9,,,,,,,,,,2017_Mar_14_0136,60.2384084655,reading_fluency,001,neww,
N,None,A train goes on the road.,3,10,304,10,,,,,,,,,,2017_Mar_14_0136,60.2384084655,reading_fluency,001,neww,
Y,None,A banana is to eat.,3,11,305,11,,,,,,,,,,2017_Mar_14_0136,60.2384084655,reading_fluency,001,neww,
Y,None,Summer is a season of the year.,3,12,306,12,,,,,,,,,,2017_Mar_14_0136,60.2384084655,reading_fluency,001,neww,
N,None,Ants are very big.,3,13,307,13,,,,,,,,,,2017_Mar_14_0136,60.2384084655,reading_fluency,001,neww,
N,None,A fire is cold.,3,14,308,14,,,,,,,,,,2017_Mar_14_0136,60.2384084655,reading_fluency,001,neww,
N,None,A bus has wings,3,15,309,15,,,,,,,,,,2017_Mar_14_0136,60.2384084655,reading_fluency,001,neww,
N,None,The color of milk is pink.,3,16,310,16,,,,,,,,,,2017_Mar_14_0136,60.2384084655,reading_fluency,001,neww,
N,None,A flower grows in the sky.,3,17,311,17,,,,,,,,,,2017_Mar_14_0136,60.2384084655,reading_fluency,001,neww,
Y,None,A dog may bark at a cat.,3,18,312,18,,,,,,,,,,2017_Mar_14_0136,60.2384084655,reading_fluency,001,neww,
Y,None,A room in a house has walls.,3,19,313,19,,,,,,,,,,2017_Mar_14_0136,60.2384084655,reading_fluency,001,neww,
Y,None,Golf is a game that some people like to play.,3,20,314,20,,,,,,,,,,2017_Mar_14_0136,60.2384084655,reading_fluency,001,neww,
N,None,June is the month after March.,3,21,315,21,,,,,,,,,,2017_Mar_14_0136,60.2384084655,reading_fluency,001,neww,
N,None,Most dogs can fly over the tops of mountains.,3,22,316,22,,,,,,,,,,2017_Mar_14_0136,60.2384084655,reading_fluency,001,neww,
Y,None,Some people like to go swimming on hot days.,3,23,317,23,,,,,,,,,,2017_Mar_14_0136,60.2384084655,reading_fluency,001,neww,
Y,None,Most windows are made of glass.,3,24,318,24,,,,,,,,,,2017_Mar_14_0136,60.2384084655,reading_fluency,001,neww,
Y,None,A pen is for writing.,3,25,319,25,,,,,,,,,,2017_Mar_14_0136,60.2384084655,reading_fluency,001,neww,
N,None,Monkeys live in fish tanks.,3,26,320,26,,,,,,,,,,2017_Mar_14_0136,60.2384084655,reading_fluency,001,neww,
Y,None,An insect may live under a rock.,3,27,321,27,,,,,,,,,,2017_Mar_14_0136,60.2384084655,reading_fluency,001,neww,
N,None,A shoe goes on your head.,3,28,322,28,,,,,,,,,,2017_Mar_14_0136,60.2384084655,reading_fluency,001,neww,
Y,None,A frog may swim in a pond.,3,29,323,29,,,,,,,,,,2017_Mar_14_0136,60.2384084655,reading_fluency,001,neww,
Y,None,A beach by the ocean may have sand.,3,30,324,30,,,,,,,,,,2017_Mar_14_0136,60.2384084655,reading_fluency,001,neww,
N,None,May is the last day of the week.,3,31,325,31,,,,,,,,,,2017_Mar_14_0136,60.2384084655,reading_fluency,001,neww,
N,None,People sit on their hands at the dinner table.,3,32,326,32,,,,,,,,,,2017_Mar_14_0136,60.2384084655,reading_fluency,001,neww,
N,None,You can see only one color in a rainbow.,3,33,327,33,,,,,,,,,,2017_Mar_14_0136,60.2384084655,reading_fluency,001,neww,
Y,None,Cars have four wheels.,3,34,328,34,,,,,,,,,,2017_Mar_14_0136,60.2384084655,reading_fluency,001,neww,
N,None,The sun is smaller than an orange.,3,35,329,35,,,,,,,,,,2017_Mar_14_0136,60.2384084655,reading_fluency,001,neww,
Y,None,A bird may build a nest.,3,36,330,36,,,,,,,,,,2017_Mar_14_0136,60.2384084655,reading_fluency,001,neww,
N,None,All mountains are very flat on top.,3,37,331,37,,,,,,,,,,2017_Mar_14_0136,60.2384084655,reading_fluency,001,neww,
Y,None,You can drink milk through a straw.,3,38,332,38,,,,,,,,,,2017_Mar_14_0136,60.2384084655,reading_fluency,001,neww,
N,None,A map is used to help you find phone numbers.,3,39,333,39,,,,,,,,,,2017_Mar_14_0136,60.2384084655,reading_fluency,001,neww,
Y,None,A hospital has more than one doctor.,3,40,334,40,,,,,,,,,,2017_Mar_14_0136,60.2384084655,reading_fluency,001,neww,
Y,None,Some people eat pie with a fork.,3,41,335,41,,,,,,,,,,2017_Mar_14_0136,60.2384084655,reading_fluency,001,neww,
Y,None,Some little babies cry when they are hungry.,3,42,336,42,,,,,,,,,,2017_Mar_14_0136,60.2384084655,reading_fluency,001,neww,
Y,None,Winter is a season of the year.,3,43,337,43,,,,,,,,,,2017_Mar_14_0136,60.2384084655,reading_fluency,001,neww,
N,None,A table has six arms.,3,44,338,44,,,,,,,,,,2017_Mar_14_0136,60.2384084655,reading_fluency,001,neww,
N,None,People serve dinner on their windows.,3,45,339,45,,,,,,,,,,2017_Mar_14_0136,60.2384084655,reading_fluency,001,neww,
Y,None,Many spiders can spin webs.,3,46,340,46,,,,,,,,,,2017_Mar_14_0136,60.2384084655,reading_fluency,001,neww,
Y,None,Some fish live in the ocean.,3,47,341,47,,,,,,,,,,2017_Mar_14_0136,60.2384084655,reading_fluency,001,neww,
Y,None,Some people buy new homes in small towns.,3,48,342,48,,,,,,,,,,2017_Mar_14_0136,60.2384084655,reading_fluency,001,neww,
Y,None,Some children fly kites on a windy day.,3,49,343,49,,,,,,,,,,2017_Mar_14_0136,60.2384084655,reading_fluency,001,neww,
N,None,A shoe is worn on your ear.,3,50,344,50,,,,,,,,,,2017_Mar_14_0136,60.2384084655,reading_fluency,001,neww,
Y,None,Some children enjoy watching cartoons on television.,3,51,345,51,,,,,,,,,,2017_Mar_14_0136,60.2384084655,reading_fluency,001,neww,
N,None,Snow is often green in color.,3,52,346,52,,,,,,,,,,2017_Mar_14_0136,60.2384084655,reading_fluency,001,neww,
N,None,A monkey is an insect that flies.,3,53,347,53,,,,,,,,,,2017_Mar_14_0136,60.2384084655,reading_fluency,001,neww,
Y,None,A door may have a lock.,3,54,348,54,,,,,,,,,,2017_Mar_14_0136,60.2384084655,reading_fluency,001,neww,
N,None,A hammer if often used to write a story.,3,55,349,55,,,,,,,,,,2017_Mar_14_0136,60.2384084655,reading_fluency,001,neww,
N,None,A plant's roots are above ground.,3,56,350,56,,,,,,,,,,2017_Mar_14_0136,60.2384084655,reading_fluency,001,neww,
Y,None,A dog may fight with another dog.,3,57,351,57,,,,,,,,,,2017_Mar_14_0136,60.2384084655,reading_fluency,001,neww,
N,None,A bicycle needs gas each day.,3,58,352,58,,,,,,,,,,2017_Mar_14_0136,60.2384084655,reading_fluency,001,neww,
N,None,Money is often used to start forest fires. ,3,59,353,59,,,,,,,,,,2017_Mar_14_0136,60.2384084655,reading_fluency,001,neww,
Y,None,One can travel faster on an airplane than on a bicycle.,3,60,354,60,,,,,,,,,,2017_Mar_14_0136,60.2384084655,reading_fluency,001,neww,
N,None,A cook works every day in a bank.,3,61,355,61,,,,,,,,,,2017_Mar_14_0136,60.2384084655,reading_fluency,001,neww,
N,None,Every year all cars need to have new engines.,3,62,356,62,,,,,,,,,,2017_Mar_14_0136,60.2384084655,reading_fluency,001,neww,
N,None,A baseball looks like a square.,3,63,357,63,,,,,,,,,,2017_Mar_14_0136,60.2384084655,reading_fluency,001,neww,
N,None,Doctors spend most of their time driving race cars.,3,64,358,64,,,,,,,,,,2017_Mar_14_0136,60.2384084655,reading_fluency,001,neww,
Y,None,Tennis is a game that some people like to play.,3,65,359,65,,,,,,,,,,2017_Mar_14_0136,60.2384084655,reading_fluency,001,neww,
N,None,Many people place pictures on the floors of their homes.,3,66,360,66,,,,,,,,,,2017_Mar_14_0136,60.2384084655,reading_fluency,001,neww,
N,None,A banker works in a kitchen.,3,67,361,67,,,,,,,,,,2017_Mar_14_0136,60.2384084655,reading_fluency,001,neww,
Y,None,A coat may be hung on a hanger in a closet.,3,68,362,68,,,,,,,,,,2017_Mar_14_0136,60.2384084655,reading_fluency,001,neww,
N,None,Glasses help people to hear.,3,69,363,69,,,,,,,,,,2017_Mar_14_0136,60.2384084655,reading_fluency,001,neww,
N,None,A camera is used to help you find your way.,3,70,364,70,,,,,,,,,,2017_Mar_14_0136,60.2384084655,reading_fluency,001,neww,
N,None,Tires are always flat.,3,71,365,71,,,,,,,,,,2017_Mar_14_0136,60.2384084655,reading_fluency,001,neww,
Y,None,A pitcher maybe used to pour water.,3,72,366,72,,,,,,,,,,2017_Mar_14_0136,60.2384084655,reading_fluency,001,neww,
N,None,A cup must have a lid.,3,73,367,73,,,,,,,,,,2017_Mar_14_0136,60.2384084655,reading_fluency,001,neww,
N,None,An elevator goes up to the moon.,3,74,368,74,,,,,,,,,,2017_Mar_14_0136,60.2384084655,reading_fluency,001,neww,
N,None,Most clouds are brown and furry.,3,75,369,75,,,,,,,,,,2017_Mar_14_0136,60.2384084655,reading_fluency,001,neww,
Y,None,There are many different types of jewelry.,3,76,370,76,,,,,,,,,,2017_Mar_14_0136,60.2384084655,reading_fluency,001,neww,
N,None,Most people use keys to comb their hair.,3,77,371,77,,,,,,,,,,2017_Mar_14_0136,60.2384084655,reading_fluency,001,neww,
Y,None,A calendar has both the weeks and days.,3,78,372,78,,,,,,,,,,2017_Mar_14_0136,60.2384084655,reading_fluency,001,neww,
Y,None,Some people like to go to another country for vacation.,3,79,373,79,,,,,,,,,,2017_Mar_14_0136,60.2384084655,reading_fluency,001,neww,
Y,None,A pencil may have an eraser on the end.,3,80,374,80,,,,,,,,,,2017_Mar_14_0136,60.2384084655,reading_fluency,001,neww,
N,None,A neighbor is a person who lives very far away.,3,81,375,81,,,,,,,,,,2017_Mar_14_0136,60.2384084655,reading_fluency,001,neww,
N,None,Bakes potatoes grow on trees.,3,82,376,82,,,,,,,,,,2017_Mar_14_0136,60.2384084655,reading_fluency,001,neww,
N,None,A classroom teacher works all day in a grocery store.,3,83,377,83,,,,,,,,,,2017_Mar_14_0136,60.2384084655,reading_fluency,001,neww,
Y,None,A flashlight may need batteries to operate.,3,84,378,84,,,,,,,,,,2017_Mar_14_0136,60.2384084655,reading_fluency,001,neww,
Y,None,Some people rent apartments in large cities.,3,85,379,85,,,,,,,,,,2017_Mar_14_0136,60.2384084655,reading_fluency,001,neww,
N,None,A goat talks in complete sentences. ,3,86,380,86,,,,,,,,,,2017_Mar_14_0136,60.2384084655,reading_fluency,001,neww,
N,None,All people avoid doctors when they feel sick.,3,87,381,87,,,,,,,,,,2017_Mar_14_0136,60.2384084655,reading_fluency,001,neww,
Y,None,A carpenter builds things with wood.,3,88,382,88,,,,,,,,,,2017_Mar_14_0136,60.2384084655,reading_fluency,001,neww,
Y,None,Newly released movies are often shown at theaters.,3,89,383,89,,,,,,,,,,2017_Mar_14_0136,60.2384084655,reading_fluency,001,neww,
N,None,A magazine has only one page.,3,90,384,90,,,,,,,,,,2017_Mar_14_0136,60.2384084655,reading_fluency,001,neww,
Y,None,A photo album may hold many pictures.,3,91,385,91,,,,,,,,,,2017_Mar_14_0136,60.2384084655,reading_fluency,001,neww,
N,None,Most dogs can climb straight up steep walls.,3,92,386,92,,,,,,,,,,2017_Mar_14_0136,60.2384084655,reading_fluency,001,neww,
Y,None,A fence can provide a border around a property.,3,93,387,93,,,,,,,,,,2017_Mar_14_0136,60.2384084655,reading_fluency,001,neww,
N,None,Most modern houses do not have any doors or windows.,3,94,388,94,,,,,,,,,,2017_Mar_14_0136,60.2384084655,reading_fluency,001,neww,
Y,None,Some people make hotel reservations for only one night.,3,95,389,95,,,,,,,,,,2017_Mar_14_0136,60.2384084655,reading_fluency,001,neww,
Y,None,A talented athlete may enjoy several different sports.,3,96,390,96,,,,,,,,,,2017_Mar_14_0136,60.2384084655,reading_fluency,001,neww,
Y,None,People may use a map to find certain locations.,3,97,391,97,,,,,,,,,,2017_Mar_14_0136,60.2384084655,reading_fluency,001,neww,
Y,None,A bird can fly.,4,0,392,0,,,,,,,,,,2017_Mar_14_0136,60.2384084655,reading_fluency,001,neww,
N,None,Cats have five legs.,4,1,393,1,,,,,,,,,,2017_Mar_14_0136,60.2384084655,reading_fluency,001,neww,
Y,None,Some people have long hair,4,2,394,2,,,,,,,,,,2017_Mar_14_0136,60.2384084655,reading_fluency,001,neww,
Y,None,People have teeth.,4,3,395,3,,,,,,,,,,2017_Mar_14_0136,60.2384084655,reading_fluency,001,neww,
N,None,The sky is always brown and yellow.,4,4,396,4,,,,,,,,,,2017_Mar_14_0136,60.2384084655,reading_fluency,001,neww,
Y,None,A clock tells time.,4,5,397,5,,,,,,,,,,2017_Mar_14_0136,60.2384084655,reading_fluency,001,neww,
N,None,The color of grass is red.,4,6,398,6,,,,,,,,,,2017_Mar_14_0136,60.2384084655,reading_fluency,001,neww,
Y,None,A school bus has a driver.,4,7,399,7,,,,,,,,,,2017_Mar_14_0136,60.2384084655,reading_fluency,001,neww,
N,None,People like to drink gum.,4,8,400,8,,,,,,,,,,2017_Mar_14_0136,60.2384084655,reading_fluency,001,neww,
N,None,A butterfly has ten wings.,4,9,401,9,,,,,,,,,,2017_Mar_14_0136,60.2384084655,reading_fluency,001,neww,
N,None,A train goes on the road.,4,10,402,10,,,,,,,,,,2017_Mar_14_0136,60.2384084655,reading_fluency,001,neww,
Y,None,A banana is to eat.,4,11,403,11,,,,,,,,,,2017_Mar_14_0136,60.2384084655,reading_fluency,001,neww,
Y,None,Summer is a season of the year.,4,12,404,12,,,,,,,,,,2017_Mar_14_0136,60.2384084655,reading_fluency,001,neww,
N,None,Ants are very big.,4,13,405,13,,,,,,,,,,2017_Mar_14_0136,60.2384084655,reading_fluency,001,neww,
N,None,A fire is cold.,4,14,406,14,,,,,,,,,,2017_Mar_14_0136,60.2384084655,reading_fluency,001,neww,
N,None,A bus has wings,4,15,407,15,,,,,,,,,,2017_Mar_14_0136,60.2384084655,reading_fluency,001,neww,
N,None,The color of milk is pink.,4,16,408,16,,,,,,,,,,2017_Mar_14_0136,60.2384084655,reading_fluency,001,neww,
N,None,A flower grows in the sky.,4,17,409,17,,,,,,,,,,2017_Mar_14_0136,60.2384084655,reading_fluency,001,neww,
Y,None,A dog may bark at a cat.,4,18,410,18,,,,,,,,,,2017_Mar_14_0136,60.2384084655,reading_fluency,001,neww,
Y,None,A room in a house has walls.,4,19,411,19,,,,,,,,,,2017_Mar_14_0136,60.2384084655,reading_fluency,001,neww,
Y,None,Golf is a game that some people like to play.,4,20,412,20,,,,,,,,,,2017_Mar_14_0136,60.2384084655,reading_fluency,001,neww,
N,None,June is the month after March.,4,21,413,21,,,,,,,,,,2017_Mar_14_0136,60.2384084655,reading_fluency,001,neww,
N,None,Most dogs can fly over the tops of mountains.,4,22,414,22,,,,,,,,,,2017_Mar_14_0136,60.2384084655,reading_fluency,001,neww,
Y,None,Some people like to go swimming on hot days.,4,23,415,23,,,,,,,,,,2017_Mar_14_0136,60.2384084655,reading_fluency,001,neww,
Y,None,Most windows are made of glass.,4,24,416,24,,,,,,,,,,2017_Mar_14_0136,60.2384084655,reading_fluency,001,neww,
Y,None,A pen is for writing.,4,25,417,25,,,,,,,,,,2017_Mar_14_0136,60.2384084655,reading_fluency,001,neww,
N,None,Monkeys live in fish tanks.,4,26,418,26,,,,,,,,,,2017_Mar_14_0136,60.2384084655,reading_fluency,001,neww,
Y,None,An insect may live under a rock.,4,27,419,27,,,,,,,,,,2017_Mar_14_0136,60.2384084655,reading_fluency,001,neww,
N,None,A shoe goes on your head.,4,28,420,28,,,,,,,,,,2017_Mar_14_0136,60.2384084655,reading_fluency,001,neww,
Y,None,A frog may swim in a pond.,4,29,421,29,,,,,,,,,,2017_Mar_14_0136,60.2384084655,reading_fluency,001,neww,
Y,None,A beach by the ocean may have sand.,4,30,422,30,,,,,,,,,,2017_Mar_14_0136,60.2384084655,reading_fluency,001,neww,
N,None,May is the last day of the week.,4,31,423,31,,,,,,,,,,2017_Mar_14_0136,60.2384084655,reading_fluency,001,neww,
N,None,People sit on their hands at the dinner table.,4,32,424,32,,,,,,,,,,2017_Mar_14_0136,60.2384084655,reading_fluency,001,neww,
N,None,You can see only one color in a rainbow.,4,33,425,33,,,,,,,,,,2017_Mar_14_0136,60.2384084655,reading_fluency,001,neww,
Y,None,Cars have four wheels.,4,34,426,34,,,,,,,,,,2017_Mar_14_0136,60.2384084655,reading_fluency,001,neww,
N,None,The sun is smaller than an orange.,4,35,427,35,,,,,,,,,,2017_Mar_14_0136,60.2384084655,reading_fluency,001,neww,
Y,None,A bird may build a nest.,4,36,428,36,,,,,,,,,,2017_Mar_14_0136,60.2384084655,reading_fluency,001,neww,
N,None,All mountains are very flat on top.,4,37,429,37,,,,,,,,,,2017_Mar_14_0136,60.2384084655,reading_fluency,001,neww,
Y,None,You can drink milk through a straw.,4,38,430,38,,,,,,,,,,2017_Mar_14_0136,60.2384084655,reading_fluency,001,neww,
N,None,A map is used to help you find phone numbers.,4,39,431,39,,,,,,,,,,2017_Mar_14_0136,60.2384084655,reading_fluency,001,neww,
Y,None,A hospital has more than one doctor.,4,40,432,40,,,,,,,,,,2017_Mar_14_0136,60.2384084655,reading_fluency,001,neww,
Y,None,Some people eat pie with a fork.,4,41,433,41,,,,,,,,,,2017_Mar_14_0136,60.2384084655,reading_fluency,001,neww,
Y,None,Some little babies cry when they are hungry.,4,42,434,42,,,,,,,,,,2017_Mar_14_0136,60.2384084655,reading_fluency,001,neww,
Y,None,Winter is a season of the year.,4,43,435,43,,,,,,,,,,2017_Mar_14_0136,60.2384084655,reading_fluency,001,neww,
N,None,A table has six arms.,4,44,436,44,,,,,,,,,,2017_Mar_14_0136,60.2384084655,reading_fluency,001,neww,
N,None,People serve dinner on their windows.,4,45,437,45,,,,,,,,,,2017_Mar_14_0136,60.2384084655,reading_fluency,001,neww,
Y,None,Many spiders can spin webs.,4,46,438,46,,,,,,,,,,2017_Mar_14_0136,60.2384084655,reading_fluency,001,neww,
Y,None,Some fish live in the ocean.,4,47,439,47,,,,,,,,,,2017_Mar_14_0136,60.2384084655,reading_fluency,001,neww,
Y,None,Some people buy new homes in small towns.,4,48,440,48,,,,,,,,,,2017_Mar_14_0136,60.2384084655,reading_fluency,001,neww,
Y,None,Some children fly kites on a windy day.,4,49,441,49,,,,,,,,,,2017_Mar_14_0136,60.2384084655,reading_fluency,001,neww,
N,None,A shoe is worn on your ear.,4,50,442,50,,,,,,,,,,2017_Mar_14_0136,60.2384084655,reading_fluency,001,neww,
Y,None,Some children enjoy watching cartoons on television.,4,51,443,51,,,,,,,,,,2017_Mar_14_0136,60.2384084655,reading_fluency,001,neww,
N,None,Snow is often green in color.,4,52,444,52,,,,,,,,,,2017_Mar_14_0136,60.2384084655,reading_fluency,001,neww,
N,None,A monkey is an insect that flies.,4,53,445,53,,,,,,,,,,2017_Mar_14_0136,60.2384084655,reading_fluency,001,neww,
Y,None,A door may have a lock.,4,54,446,54,,,,,,,,,,2017_Mar_14_0136,60.2384084655,reading_fluency,001,neww,
N,None,A hammer if often used to write a story.,4,55,447,55,,,,,,,,,,2017_Mar_14_0136,60.2384084655,reading_fluency,001,neww,
N,None,A plant's roots are above ground.,4,56,448,56,,,,,,,,,,2017_Mar_14_0136,60.2384084655,reading_fluency,001,neww,
Y,None,A dog may fight with another dog.,4,57,449,57,,,,,,,,,,2017_Mar_14_0136,60.2384084655,reading_fluency,001,neww,
N,None,A bicycle needs gas each day.,4,58,450,58,,,,,,,,,,2017_Mar_14_0136,60.2384084655,reading_fluency,001,neww,
N,None,Money is often used to start forest fires. ,4,59,451,59,,,,,,,,,,2017_Mar_14_0136,60.2384084655,reading_fluency,001,neww,
Y,None,One can travel faster on an airplane than on a bicycle.,4,60,452,60,,,,,,,,,,2017_Mar_14_0136,60.2384084655,reading_fluency,001,neww,
N,None,A cook works every day in a bank.,4,61,453,61,,,,,,,,,,2017_Mar_14_0136,60.2384084655,reading_fluency,001,neww,
N,None,Every year all cars need to have new engines.,4,62,454,62,,,,,,,,,,2017_Mar_14_0136,60.2384084655,reading_fluency,001,neww,
N,None,A baseball looks like a square.,4,63,455,63,,,,,,,,,,2017_Mar_14_0136,60.2384084655,reading_fluency,001,neww,
N,None,Doctors spend most of their time driving race cars.,4,64,456,64,,,,,,,,,,2017_Mar_14_0136,60.2384084655,reading_fluency,001,neww,
Y,None,Tennis is a game that some people like to play.,4,65,457,65,,,,,,,,,,2017_Mar_14_0136,60.2384084655,reading_fluency,001,neww,
N,None,Many people place pictures on the floors of their homes.,4,66,458,66,,,,,,,,,,2017_Mar_14_0136,60.2384084655,reading_fluency,001,neww,
N,None,A banker works in a kitchen.,4,67,459,67,,,,,,,,,,2017_Mar_14_0136,60.2384084655,reading_fluency,001,neww,
Y,None,A coat may be hung on a hanger in a closet.,4,68,460,68,,,,,,,,,,2017_Mar_14_0136,60.2384084655,reading_fluency,001,neww,
N,None,Glasses help people to hear.,4,69,461,69,,,,,,,,,,2017_Mar_14_0136,60.2384084655,reading_fluency,001,neww,
N,None,A camera is used to help you find your way.,4,70,462,70,,,,,,,,,,2017_Mar_14_0136,60.2384084655,reading_fluency,001,neww,
N,None,Tires are always flat.,4,71,463,71,,,,,,,,,,2017_Mar_14_0136,60.2384084655,reading_fluency,001,neww,
Y,None,A pitcher maybe used to pour water.,4,72,464,72,,,,,,,,,,2017_Mar_14_0136,60.2384084655,reading_fluency,001,neww,
N,None,A cup must have a lid.,4,73,465,73,,,,,,,,,,2017_Mar_14_0136,60.2384084655,reading_fluency,001,neww,
N,None,An elevator goes up to the moon.,4,74,466,74,,,,,,,,,,2017_Mar_14_0136,60.2384084655,reading_fluency,001,neww,
N,None,Most clouds are brown and furry.,4,75,467,75,,,,,,,,,,2017_Mar_14_0136,60.2384084655,reading_fluency,001,neww,
Y,None,There are many different types of jewelry.,4,76,468,76,,,,,,,,,,2017_Mar_14_0136,60.2384084655,reading_fluency,001,neww,
N,None,Most people use keys to comb their hair.,4,77,469,77,,,,,,,,,,2017_Mar_14_0136,60.2384084655,reading_fluency,001,neww,
Y,None,A calendar has both the weeks and days.,4,78,470,78,,,,,,,,,,2017_Mar_14_0136,60.2384084655,reading_fluency,001,neww,
Y,None,Some people like to go to another country for vacation.,4,79,471,79,,,,,,,,,,2017_Mar_14_0136,60.2384084655,reading_fluency,001,neww,
Y,None,A pencil may have an eraser on the end.,4,80,472,80,,,,,,,,,,2017_Mar_14_0136,60.2384084655,reading_fluency,001,neww,
N,None,A neighbor is a person who lives very far away.,4,81,473,81,,,,,,,,,,2017_Mar_14_0136,60.2384084655,reading_fluency,001,neww,
N,None,Bakes potatoes grow on trees.,4,82,474,82,,,,,,,,,,2017_Mar_14_0136,60.2384084655,reading_fluency,001,neww,
N,None,A classroom teacher works all day in a grocery store.,4,83,475,83,,,,,,,,,,2017_Mar_14_0136,60.2384084655,reading_fluency,001,neww,
Y,None,A flashlight may need batteries to operate.,4,84,476,84,,,,,,,,,,2017_Mar_14_0136,60.2384084655,reading_fluency,001,neww,
Y,None,Some people rent apartments in large cities.,4,85,477,85,,,,,,,,,,2017_Mar_14_0136,60.2384084655,reading_fluency,001,neww,
N,None,A goat talks in complete sentences. ,4,86,478,86,,,,,,,,,,2017_Mar_14_0136,60.2384084655,reading_fluency,001,neww,
N,None,All people avoid doctors when they feel sick.,4,87,479,87,,,,,,,,,,2017_Mar_14_0136,60.2384084655,reading_fluency,001,neww,
Y,None,A carpenter builds things with wood.,4,88,480,88,,,,,,,,,,2017_Mar_14_0136,60.2384084655,reading_fluency,001,neww,
Y,None,Newly released movies are often shown at theaters.,4,89,481,89,,,,,,,,,,2017_Mar_14_0136,60.2384084655,reading_fluency,001,neww,
N,None,A magazine has only one page.,4,90,482,90,,,,,,,,,,2017_Mar_14_0136,60.2384084655,reading_fluency,001,neww,
Y,None,A photo album may hold many pictures.,4,91,483,91,,,,,,,,,,2017_Mar_14_0136,60.2384084655,reading_fluency,001,neww,
N,None,Most dogs can climb straight up steep walls.,4,92,484,92,,,,,,,,,,2017_Mar_14_0136,60.2384084655,reading_fluency,001,neww,
Y,None,A fence can provide a border around a property.,4,93,485,93,,,,,,,,,,2017_Mar_14_0136,60.2384084655,reading_fluency,001,neww,
N,None,Most modern houses do not have any doors or windows.,4,94,486,94,,,,,,,,,,2017_Mar_14_0136,60.2384084655,reading_fluency,001,neww,
Y,None,Some people make hotel reservations for only one night.,4,95,487,95,,,,,,,,,,2017_Mar_14_0136,60.2384084655,reading_fluency,001,neww,
Y,None,A talented athlete may enjoy several different sports.,4,96,488,96,,,,,,,,,,2017_Mar_14_0136,60.2384084655,reading_fluency,001,neww,
Y,None,People may use a map to find certain locations.,4,97,489,97,,,,,,,,,,2017_Mar_14_0136,60.2384084655,reading_fluency,001,neww,
Y,None,A bird can fly.,5,0,490,0,,,,,,,,,,2017_Mar_14_0136,60.2384084655,reading_fluency,001,neww,
N,None,Cats have five legs.,5,1,491,1,,,,,,,,,,2017_Mar_14_0136,60.2384084655,reading_fluency,001,neww,
Y,None,Some people have long hair,5,2,492,2,,,,,,,,,,2017_Mar_14_0136,60.2384084655,reading_fluency,001,neww,
Y,None,People have teeth.,5,3,493,3,,,,,,,,,,2017_Mar_14_0136,60.2384084655,reading_fluency,001,neww,
N,None,The sky is always brown and yellow.,5,4,494,4,,,,,,,,,,2017_Mar_14_0136,60.2384084655,reading_fluency,001,neww,
Y,None,A clock tells time.,5,5,495,5,,,,,,,,,,2017_Mar_14_0136,60.2384084655,reading_fluency,001,neww,
N,None,The color of grass is red.,5,6,496,6,,,,,,,,,,2017_Mar_14_0136,60.2384084655,reading_fluency,001,neww,
Y,None,A school bus has a driver.,5,7,497,7,,,,,,,,,,2017_Mar_14_0136,60.2384084655,reading_fluency,001,neww,
N,None,People like to drink gum.,5,8,498,8,,,,,,,,,,2017_Mar_14_0136,60.2384084655,reading_fluency,001,neww,
N,None,A butterfly has ten wings.,5,9,499,9,,,,,,,,,,2017_Mar_14_0136,60.2384084655,reading_fluency,001,neww,
N,None,A train goes on the road.,5,10,500,10,,,,,,,,,,2017_Mar_14_0136,60.2384084655,reading_fluency,001,neww,
Y,None,A banana is to eat.,5,11,501,11,,,,,,,,,,2017_Mar_14_0136,60.2384084655,reading_fluency,001,neww,
Y,None,Summer is a season of the year.,5,12,502,12,,,,,,,,,,2017_Mar_14_0136,60.2384084655,reading_fluency,001,neww,
N,None,Ants are very big.,5,13,503,13,,,,,,,,,,2017_Mar_14_0136,60.2384084655,reading_fluency,001,neww,
N,None,A fire is cold.,5,14,504,14,,,,,,,,,,2017_Mar_14_0136,60.2384084655,reading_fluency,001,neww,
N,None,A bus has wings,5,15,505,15,,,,,,,,,,2017_Mar_14_0136,60.2384084655,reading_fluency,001,neww,
N,None,The color of milk is pink.,5,16,506,16,,,,,,,,,,2017_Mar_14_0136,60.2384084655,reading_fluency,001,neww,
N,None,A flower grows in the sky.,5,17,507,17,,,,,,,,,,2017_Mar_14_0136,60.2384084655,reading_fluency,001,neww,
Y,None,A dog may bark at a cat.,5,18,508,18,,,,,,,,,,2017_Mar_14_0136,60.2384084655,reading_fluency,001,neww,
Y,None,A room in a house has walls.,5,19,509,19,,,,,,,,,,2017_Mar_14_0136,60.2384084655,reading_fluency,001,neww,
Y,None,Golf is a game that some people like to play.,5,20,510,20,,,,,,,,,,2017_Mar_14_0136,60.2384084655,reading_fluency,001,neww,
N,None,June is the month after March.,5,21,511,21,,,,,,,,,,2017_Mar_14_0136,60.2384084655,reading_fluency,001,neww,
N,None,Most dogs can fly over the tops of mountains.,5,22,512,22,,,,,,,,,,2017_Mar_14_0136,60.2384084655,reading_fluency,001,neww,
Y,None,Some people like to go swimming on hot days.,5,23,513,23,,,,,,,,,,2017_Mar_14_0136,60.2384084655,reading_fluency,001,neww,
Y,None,Most windows are made of glass.,5,24,514,24,,,,,,,,,,2017_Mar_14_0136,60.2384084655,reading_fluency,001,neww,
Y,None,A pen is for writing.,5,25,515,25,,,,,,,,,,2017_Mar_14_0136,60.2384084655,reading_fluency,001,neww,
N,None,Monkeys live in fish tanks.,5,26,516,26,,,,,,,,,,2017_Mar_14_0136,60.2384084655,reading_fluency,001,neww,
Y,None,An insect may live under a rock.,5,27,517,27,,,,,,,,,,2017_Mar_14_0136,60.2384084655,reading_fluency,001,neww,
N,None,A shoe goes on your head.,5,28,518,28,,,,,,,,,,2017_Mar_14_0136,60.2384084655,reading_fluency,001,neww,
Y,None,A frog may swim in a pond.,5,29,519,29,,,,,,,,,,2017_Mar_14_0136,60.2384084655,reading_fluency,001,neww,
Y,None,A beach by the ocean may have sand.,5,30,520,30,,,,,,,,,,2017_Mar_14_0136,60.2384084655,reading_fluency,001,neww,
N,None,May is the last day of the week.,5,31,521,31,,,,,,,,,,2017_Mar_14_0136,60.2384084655,reading_fluency,001,neww,
N,None,People sit on their hands at the dinner table.,5,32,522,32,,,,,,,,,,2017_Mar_14_0136,60.2384084655,reading_fluency,001,neww,
N,None,You can see only one color in a rainbow.,5,33,523,33,,,,,,,,,,2017_Mar_14_0136,60.2384084655,reading_fluency,001,neww,
Y,None,Cars have four wheels.,5,34,524,34,,,,,,,,,,2017_Mar_14_0136,60.2384084655,reading_fluency,001,neww,
N,None,The sun is smaller than an orange.,5,35,525,35,,,,,,,,,,2017_Mar_14_0136,60.2384084655,reading_fluency,001,neww,
Y,None,A bird may build a nest.,5,36,526,36,,,,,,,,,,2017_Mar_14_0136,60.2384084655,reading_fluency,001,neww,
N,None,All mountains are very flat on top.,5,37,527,37,,,,,,,,,,2017_Mar_14_0136,60.2384084655,reading_fluency,001,neww,
Y,None,You can drink milk through a straw.,5,38,528,38,,,,,,,,,,2017_Mar_14_0136,60.2384084655,reading_fluency,001,neww,
N,None,A map is used to help you find phone numbers.,5,39,529,39,,,,,,,,,,2017_Mar_14_0136,60.2384084655,reading_fluency,001,neww,
Y,None,A hospital has more than one doctor.,5,40,530,40,,,,,,,,,,2017_Mar_14_0136,60.2384084655,reading_fluency,001,neww,
Y,None,Some people eat pie with a fork.,5,41,531,41,,,,,,,,,,2017_Mar_14_0136,60.2384084655,reading_fluency,001,neww,
Y,None,Some little babies cry when they are hungry.,5,42,532,42,,,,,,,,,,2017_Mar_14_0136,60.2384084655,reading_fluency,001,neww,
Y,None,Winter is a season of the year.,5,43,533,43,,,,,,,,,,2017_Mar_14_0136,60.2384084655,reading_fluency,001,neww,
N,None,A table has six arms.,5,44,534,44,,,,,,,,,,2017_Mar_14_0136,60.2384084655,reading_fluency,001,neww,
N,None,People serve dinner on their windows.,5,45,535,45,,,,,,,,,,2017_Mar_14_0136,60.2384084655,reading_fluency,001,neww,
Y,None,Many spiders can spin webs.,5,46,536,46,,,,,,,,,,2017_Mar_14_0136,60.2384084655,reading_fluency,001,neww,
Y,None,Some fish live in the ocean.,5,47,537,47,,,,,,,,,,2017_Mar_14_0136,60.2384084655,reading_fluency,001,neww,
Y,None,Some people buy new homes in small towns.,5,48,538,48,,,,,,,,,,2017_Mar_14_0136,60.2384084655,reading_fluency,001,neww,
Y,None,Some children fly kites on a windy day.,5,49,539,49,,,,,,,,,,2017_Mar_14_0136,60.2384084655,reading_fluency,001,neww,
N,None,A shoe is worn on your ear.,5,50,540,50,,,,,,,,,,2017_Mar_14_0136,60.2384084655,reading_fluency,001,neww,
Y,None,Some children enjoy watching cartoons on television.,5,51,541,51,,,,,,,,,,2017_Mar_14_0136,60.2384084655,reading_fluency,001,neww,
N,None,Snow is often green in color.,5,52,542,52,,,,,,,,,,2017_Mar_14_0136,60.2384084655,reading_fluency,001,neww,
N,None,A monkey is an insect that flies.,5,53,543,53,,,,,,,,,,2017_Mar_14_0136,60.2384084655,reading_fluency,001,neww,
Y,None,A door may have a lock.,5,54,544,54,,,,,,,,,,2017_Mar_14_0136,60.2384084655,reading_fluency,001,neww,
N,None,A hammer if often used to write a story.,5,55,545,55,,,,,,,,,,2017_Mar_14_0136,60.2384084655,reading_fluency,001,neww,
N,None,A plant's roots are above ground.,5,56,546,56,,,,,,,,,,2017_Mar_14_0136,60.2384084655,reading_fluency,001,neww,
Y,None,A dog may fight with another dog.,5,57,547,57,,,,,,,,,,2017_Mar_14_0136,60.2384084655,reading_fluency,001,neww,
N,None,A bicycle needs gas each day.,5,58,548,58,,,,,,,,,,2017_Mar_14_0136,60.2384084655,reading_fluency,001,neww,
N,None,Money is often used to start forest fires. ,5,59,549,59,,,,,,,,,,2017_Mar_14_0136,60.2384084655,reading_fluency,001,neww,
Y,None,One can travel faster on an airplane than on a bicycle.,5,60,550,60,,,,,,,,,,2017_Mar_14_0136,60.2384084655,reading_fluency,001,neww,
N,None,A cook works every day in a bank.,5,61,551,61,,,,,,,,,,2017_Mar_14_0136,60.2384084655,reading_fluency,001,neww,
N,None,Every year all cars need to have new engines.,5,62,552,62,,,,,,,,,,2017_Mar_14_0136,60.2384084655,reading_fluency,001,neww,
N,None,A baseball looks like a square.,5,63,553,63,,,,,,,,,,2017_Mar_14_0136,60.2384084655,reading_fluency,001,neww,
N,None,Doctors spend most of their time driving race cars.,5,64,554,64,,,,,,,,,,2017_Mar_14_0136,60.2384084655,reading_fluency,001,neww,
Y,None,Tennis is a game that some people like to play.,5,65,555,65,,,,,,,,,,2017_Mar_14_0136,60.2384084655,reading_fluency,001,neww,
N,None,Many people place pictures on the floors of their homes.,5,66,556,66,,,,,,,,,,2017_Mar_14_0136,60.2384084655,reading_fluency,001,neww,
N,None,A banker works in a kitchen.,5,67,557,67,,,,,,,,,,2017_Mar_14_0136,60.2384084655,reading_fluency,001,neww,
Y,None,A coat may be hung on a hanger in a closet.,5,68,558,68,,,,,,,,,,2017_Mar_14_0136,60.2384084655,reading_fluency,001,neww,
N,None,Glasses help people to hear.,5,69,559,69,,,,,,,,,,2017_Mar_14_0136,60.2384084655,reading_fluency,001,neww,
N,None,A camera is used to help you find your way.,5,70,560,70,,,,,,,,,,2017_Mar_14_0136,60.2384084655,reading_fluency,001,neww,
N,None,Tires are always flat.,5,71,561,71,,,,,,,,,,2017_Mar_14_0136,60.2384084655,reading_fluency,001,neww,
Y,None,A pitcher maybe used to pour water.,5,72,562,72,,,,,,,,,,2017_Mar_14_0136,60.2384084655,reading_fluency,001,neww,
N,None,A cup must have a lid.,5,73,563,73,,,,,,,,,,2017_Mar_14_0136,60.2384084655,reading_fluency,001,neww,
N,None,An elevator goes up to the moon.,5,74,564,74,,,,,,,,,,2017_Mar_14_0136,60.2384084655,reading_fluency,001,neww,
N,None,Most clouds are brown and furry.,5,75,565,75,,,,,,,,,,2017_Mar_14_0136,60.2384084655,reading_fluency,001,neww,
Y,None,There are many different types of jewelry.,5,76,566,76,,,,,,,,,,2017_Mar_14_0136,60.2384084655,reading_fluency,001,neww,
N,None,Most people use keys to comb their hair.,5,77,567,77,,,,,,,,,,2017_Mar_14_0136,60.2384084655,reading_fluency,001,neww,
Y,None,A calendar has both the weeks and days.,5,78,568,78,,,,,,,,,,2017_Mar_14_0136,60.2384084655,reading_fluency,001,neww,
Y,None,Some people like to go to another country for vacation.,5,79,569,79,,,,,,,,,,2017_Mar_14_0136,60.2384084655,reading_fluency,001,neww,
Y,None,A pencil may have an eraser on the end.,5,80,570,80,,,,,,,,,,2017_Mar_14_0136,60.2384084655,reading_fluency,001,neww,
N,None,A neighbor is a person who lives very far away.,5,81,571,81,,,,,,,,,,2017_Mar_14_0136,60.2384084655,reading_fluency,001,neww,
N,None,Bakes potatoes grow on trees.,5,82,572,82,,,,,,,,,,2017_Mar_14_0136,60.2384084655,reading_fluency,001,neww,
N,None,A classroom teacher works all day in a grocery store.,5,83,573,83,,,,,,,,,,2017_Mar_14_0136,60.2384084655,reading_fluency,001,neww,
Y,None,A flashlight may need batteries to operate.,5,84,574,84,,,,,,,,,,2017_Mar_14_0136,60.2384084655,reading_fluency,001,neww,
Y,None,Some people rent apartments in large cities.,5,85,575,85,,,,,,,,,,2017_Mar_14_0136,60.2384084655,reading_fluency,001,neww,
N,None,A goat talks in complete sentences. ,5,86,576,86,,,,,,,,,,2017_Mar_14_0136,60.2384084655,reading_fluency,001,neww,
N,None,All people avoid doctors when they feel sick.,5,87,577,87,,,,,,,,,,2017_Mar_14_0136,60.2384084655,reading_fluency,001,neww,
Y,None,A carpenter builds things with wood.,5,88,578,88,,,,,,,,,,2017_Mar_14_0136,60.2384084655,reading_fluency,001,neww,
Y,None,Newly released movies are often shown at theaters.,5,89,579,89,,,,,,,,,,2017_Mar_14_0136,60.2384084655,reading_fluency,001,neww,
N,None,A magazine has only one page.,5,90,580,90,,,,,,,,,,2017_Mar_14_0136,60.2384084655,reading_fluency,001,neww,
Y,None,A photo album may hold many pictures.,5,91,581,91,,,,,,,,,,2017_Mar_14_0136,60.2384084655,reading_fluency,001,neww,
N,None,Most dogs can climb straight up steep walls.,5,92,582,92,,,,,,,,,,2017_Mar_14_0136,60.2384084655,reading_fluency,001,neww,
Y,None,A fence can provide a border around a property.,5,93,583,93,,,,,,,,,,2017_Mar_14_0136,60.2384084655,reading_fluency,001,neww,
N,None,Most modern houses do not have any doors or windows.,5,94,584,94,,,,,,,,,,2017_Mar_14_0136,60.2384084655,reading_fluency,001,neww,
Y,None,Some people make hotel reservations for only one night.,5,95,585,95,,,,,,,,,,2017_Mar_14_0136,60.2384084655,reading_fluency,001,neww,
Y,None,A talented athlete may enjoy several different sports.,5,96,586,96,,,,,,,,,,2017_Mar_14_0136,60.2384084655,reading_fluency,001,neww,
Y,None,People may use a map to find certain locations.,5,97,587,97,,,,,,,,,,2017_Mar_14_0136,60.2384084655,reading_fluency,001,neww,
Y,None,A bird can fly.,6,0,588,0,,,,,,,,,,2017_Mar_14_0136,60.2384084655,reading_fluency,001,neww,
N,None,Cats have five legs.,6,1,589,1,,,,,,,,,,2017_Mar_14_0136,60.2384084655,reading_fluency,001,neww,
Y,None,Some people have long hair,6,2,590,2,,,,,,,,,,2017_Mar_14_0136,60.2384084655,reading_fluency,001,neww,
Y,None,People have teeth.,6,3,591,3,,,,,,,,,,2017_Mar_14_0136,60.2384084655,reading_fluency,001,neww,
N,None,The sky is always brown and yellow.,6,4,592,4,,,,,,,,,,2017_Mar_14_0136,60.2384084655,reading_fluency,001,neww,
Y,None,A clock tells time.,6,5,593,5,,,,,,,,,,2017_Mar_14_0136,60.2384084655,reading_fluency,001,neww,
N,None,The color of grass is red.,6,6,594,6,,,,,,,,,,2017_Mar_14_0136,60.2384084655,reading_fluency,001,neww,
Y,None,A school bus has a driver.,6,7,595,7,,,,,,,,,,2017_Mar_14_0136,60.2384084655,reading_fluency,001,neww,
N,None,People like to drink gum.,6,8,596,8,,,,,,,,,,2017_Mar_14_0136,60.2384084655,reading_fluency,001,neww,
N,None,A butterfly has ten wings.,6,9,597,9,,,,,,,,,,2017_Mar_14_0136,60.2384084655,reading_fluency,001,neww,
N,None,A train goes on the road.,6,10,598,10,,,,,,,,,,2017_Mar_14_0136,60.2384084655,reading_fluency,001,neww,
Y,None,A banana is to eat.,6,11,599,11,,,,,,,,,,2017_Mar_14_0136,60.2384084655,reading_fluency,001,neww,
Y,None,Summer is a season of the year.,6,12,600,12,,,,,,,,,,2017_Mar_14_0136,60.2384084655,reading_fluency,001,neww,
N,None,Ants are very big.,6,13,601,13,,,,,,,,,,2017_Mar_14_0136,60.2384084655,reading_fluency,001,neww,
N,None,A fire is cold.,6,14,602,14,,,,,,,,,,2017_Mar_14_0136,60.2384084655,reading_fluency,001,neww,
N,None,A bus has wings,6,15,603,15,,,,,,,,,,2017_Mar_14_0136,60.2384084655,reading_fluency,001,neww,
N,None,The color of milk is pink.,6,16,604,16,,,,,,,,,,2017_Mar_14_0136,60.2384084655,reading_fluency,001,neww,
N,None,A flower grows in the sky.,6,17,605,17,,,,,,,,,,2017_Mar_14_0136,60.2384084655,reading_fluency,001,neww,
Y,None,A dog may bark at a cat.,6,18,606,18,,,,,,,,,,2017_Mar_14_0136,60.2384084655,reading_fluency,001,neww,
Y,None,A room in a house has walls.,6,19,607,19,,,,,,,,,,2017_Mar_14_0136,60.2384084655,reading_fluency,001,neww,
Y,None,Golf is a game that some people like to play.,6,20,608,20,,,,,,,,,,2017_Mar_14_0136,60.2384084655,reading_fluency,001,neww,
N,None,June is the month after March.,6,21,609,21,,,,,,,,,,2017_Mar_14_0136,60.2384084655,reading_fluency,001,neww,
N,None,Most dogs can fly over the tops of mountains.,6,22,610,22,,,,,,,,,,2017_Mar_14_0136,60.2384084655,reading_fluency,001,neww,
Y,None,Some people like to go swimming on hot days.,6,23,611,23,,,,,,,,,,2017_Mar_14_0136,60.2384084655,reading_fluency,001,neww,
Y,None,Most windows are made of glass.,6,24,612,24,,,,,,,,,,2017_Mar_14_0136,60.2384084655,reading_fluency,001,neww,
Y,None,A pen is for writing.,6,25,613,25,,,,,,,,,,2017_Mar_14_0136,60.2384084655,reading_fluency,001,neww,
N,None,Monkeys live in fish tanks.,6,26,614,26,,,,,,,,,,2017_Mar_14_0136,60.2384084655,reading_fluency,001,neww,
Y,None,An insect may live under a rock.,6,27,615,27,,,,,,,,,,2017_Mar_14_0136,60.2384084655,reading_fluency,001,neww,
N,None,A shoe goes on your head.,6,28,616,28,,,,,,,,,,2017_Mar_14_0136,60.2384084655,reading_fluency,001,neww,
Y,None,A frog may swim in a pond.,6,29,617,29,,,,,,,,,,2017_Mar_14_0136,60.2384084655,reading_fluency,001,neww,
Y,None,A beach by the ocean may have sand.,6,30,618,30,,,,,,,,,,2017_Mar_14_0136,60.2384084655,reading_fluency,001,neww,
N,None,May is the last day of the week.,6,31,619,31,,,,,,,,,,2017_Mar_14_0136,60.2384084655,reading_fluency,001,neww,
N,None,People sit on their hands at the dinner table.,6,32,620,32,,,,,,,,,,2017_Mar_14_0136,60.2384084655,reading_fluency,001,neww,
N,None,You can see only one color in a rainbow.,6,33,621,33,,,,,,,,,,2017_Mar_14_0136,60.2384084655,reading_fluency,001,neww,
Y,None,Cars have four wheels.,6,34,622,34,,,,,,,,,,2017_Mar_14_0136,60.2384084655,reading_fluency,001,neww,
N,None,The sun is smaller than an orange.,6,35,623,35,,,,,,,,,,2017_Mar_14_0136,60.2384084655,reading_fluency,001,neww,
Y,None,A bird may build a nest.,6,36,624,36,,,,,,,,,,2017_Mar_14_0136,60.2384084655,reading_fluency,001,neww,
N,None,All mountains are very flat on top.,6,37,625,37,,,,,,,,,,2017_Mar_14_0136,60.2384084655,reading_fluency,001,neww,
Y,None,You can drink milk through a straw.,6,38,626,38,,,,,,,,,,2017_Mar_14_0136,60.2384084655,reading_fluency,001,neww,
N,None,A map is used to help you find phone numbers.,6,39,627,39,,,,,,,,,,2017_Mar_14_0136,60.2384084655,reading_fluency,001,neww,
Y,None,A hospital has more than one doctor.,6,40,628,40,,,,,,,,,,2017_Mar_14_0136,60.2384084655,reading_fluency,001,neww,
Y,None,Some people eat pie with a fork.,6,41,629,41,,,,,,,,,,2017_Mar_14_0136,60.2384084655,reading_fluency,001,neww,
Y,None,Some little babies cry when they are hungry.,6,42,630,42,,,,,,,,,,2017_Mar_14_0136,60.2384084655,reading_fluency,001,neww,
Y,None,Winter is a season of the year.,6,43,631,43,,,,,,,,,,2017_Mar_14_0136,60.2384084655,reading_fluency,001,neww,
N,None,A table has six arms.,6,44,632,44,,,,,,,,,,2017_Mar_14_0136,60.2384084655,reading_fluency,001,neww,
N,None,People serve dinner on their windows.,6,45,633,45,,,,,,,,,,2017_Mar_14_0136,60.2384084655,reading_fluency,001,neww,
Y,None,Many spiders can spin webs.,6,46,634,46,,,,,,,,,,2017_Mar_14_0136,60.2384084655,reading_fluency,001,neww,
Y,None,Some fish live in the ocean.,6,47,635,47,,,,,,,,,,2017_Mar_14_0136,60.2384084655,reading_fluency,001,neww,
Y,None,Some people buy new homes in small towns.,6,48,636,48,,,,,,,,,,2017_Mar_14_0136,60.2384084655,reading_fluency,001,neww,
Y,None,Some children fly kites on a windy day.,6,49,637,49,,,,,,,,,,2017_Mar_14_0136,60.2384084655,reading_fluency,001,neww,
N,None,A shoe is worn on your ear.,6,50,638,50,,,,,,,,,,2017_Mar_14_0136,60.2384084655,reading_fluency,001,neww,
Y,None,Some children enjoy watching cartoons on television.,6,51,639,51,,,,,,,,,,2017_Mar_14_0136,60.2384084655,reading_fluency,001,neww,
N,None,Snow is often green in color.,6,52,640,52,,,,,,,,,,2017_Mar_14_0136,60.2384084655,reading_fluency,001,neww,
N,None,A monkey is an insect that flies.,6,53,641,53,,,,,,,,,,2017_Mar_14_0136,60.2384084655,reading_fluency,001,neww,
Y,None,A door may have a lock.,6,54,642,54,,,,,,,,,,2017_Mar_14_0136,60.2384084655,reading_fluency,001,neww,
N,None,A hammer if often used to write a story.,6,55,643,55,,,,,,,,,,2017_Mar_14_0136,60.2384084655,reading_fluency,001,neww,
N,None,A plant's roots are above ground.,6,56,644,56,,,,,,,,,,2017_Mar_14_0136,60.2384084655,reading_fluency,001,neww,
Y,None,A dog may fight with another dog.,6,57,645,57,,,,,,,,,,2017_Mar_14_0136,60.2384084655,reading_fluency,001,neww,
N,None,A bicycle needs gas each day.,6,58,646,58,,,,,,,,,,2017_Mar_14_0136,60.2384084655,reading_fluency,001,neww,
N,None,Money is often used to start forest fires. ,6,59,647,59,,,,,,,,,,2017_Mar_14_0136,60.2384084655,reading_fluency,001,neww,
Y,None,One can travel faster on an airplane than on a bicycle.,6,60,648,60,,,,,,,,,,2017_Mar_14_0136,60.2384084655,reading_fluency,001,neww,
N,None,A cook works every day in a bank.,6,61,649,61,,,,,,,,,,2017_Mar_14_0136,60.2384084655,reading_fluency,001,neww,
N,None,Every year all cars need to have new engines.,6,62,650,62,,,,,,,,,,2017_Mar_14_0136,60.2384084655,reading_fluency,001,neww,
N,None,A baseball looks like a square.,6,63,651,63,,,,,,,,,,2017_Mar_14_0136,60.2384084655,reading_fluency,001,neww,
N,None,Doctors spend most of their time driving race cars.,6,64,652,64,,,,,,,,,,2017_Mar_14_0136,60.2384084655,reading_fluency,001,neww,
Y,None,Tennis is a game that some people like to play.,6,65,653,65,,,,,,,,,,2017_Mar_14_0136,60.2384084655,reading_fluency,001,neww,
N,None,Many people place pictures on the floors of their homes.,6,66,654,66,,,,,,,,,,2017_Mar_14_0136,60.2384084655,reading_fluency,001,neww,
N,None,A banker works in a kitchen.,6,67,655,67,,,,,,,,,,2017_Mar_14_0136,60.2384084655,reading_fluency,001,neww,
Y,None,A coat may be hung on a hanger in a closet.,6,68,656,68,,,,,,,,,,2017_Mar_14_0136,60.2384084655,reading_fluency,001,neww,
N,None,Glasses help people to hear.,6,69,657,69,,,,,,,,,,2017_Mar_14_0136,60.2384084655,reading_fluency,001,neww,
N,None,A camera is used to help you find your way.,6,70,658,70,,,,,,,,,,2017_Mar_14_0136,60.2384084655,reading_fluency,001,neww,
N,None,Tires are always flat.,6,71,659,71,,,,,,,,,,2017_Mar_14_0136,60.2384084655,reading_fluency,001,neww,
Y,None,A pitcher maybe used to pour water.,6,72,660,72,,,,,,,,,,2017_Mar_14_0136,60.2384084655,reading_fluency,001,neww,
N,None,A cup must have a lid.,6,73,661,73,,,,,,,,,,2017_Mar_14_0136,60.2384084655,reading_fluency,001,neww,
N,None,An elevator goes up to the moon.,6,74,662,74,,,,,,,,,,2017_Mar_14_0136,60.2384084655,reading_fluency,001,neww,
N,None,Most clouds are brown and furry.,6,75,663,75,,,,,,,,,,2017_Mar_14_0136,60.2384084655,reading_fluency,001,neww,
Y,None,There are many different types of jewelry.,6,76,664,76,,,,,,,,,,2017_Mar_14_0136,60.2384084655,reading_fluency,001,neww,
N,None,Most people use keys to comb their hair.,6,77,665,77,,,,,,,,,,2017_Mar_14_0136,60.2384084655,reading_fluency,001,neww,
Y,None,A calendar has both the weeks and days.,6,78,666,78,,,,,,,,,,2017_Mar_14_0136,60.2384084655,reading_fluency,001,neww,
Y,None,Some people like to go to another country for vacation.,6,79,667,79,,,,,,,,,,2017_Mar_14_0136,60.2384084655,reading_fluency,001,neww,
Y,None,A pencil may have an eraser on the end.,6,80,668,80,,,,,,,,,,2017_Mar_14_0136,60.2384084655,reading_fluency,001,neww,
N,None,A neighbor is a person who lives very far away.,6,81,669,81,,,,,,,,,,2017_Mar_14_0136,60.2384084655,reading_fluency,001,neww,
N,None,Bakes potatoes grow on trees.,6,82,670,82,,,,,,,,,,2017_Mar_14_0136,60.2384084655,reading_fluency,001,neww,
N,None,A classroom teacher works all day in a grocery store.,6,83,671,83,,,,,,,,,,2017_Mar_14_0136,60.2384084655,reading_fluency,001,neww,
Y,None,A flashlight may need batteries to operate.,6,84,672,84,,,,,,,,,,2017_Mar_14_0136,60.2384084655,reading_fluency,001,neww,
Y,None,Some people rent apartments in large cities.,6,85,673,85,,,,,,,,,,2017_Mar_14_0136,60.2384084655,reading_fluency,001,neww,
N,None,A goat talks in complete sentences. ,6,86,674,86,,,,,,,,,,2017_Mar_14_0136,60.2384084655,reading_fluency,001,neww,
N,None,All people avoid doctors when they feel sick.,6,87,675,87,,,,,,,,,,2017_Mar_14_0136,60.2384084655,reading_fluency,001,neww,
Y,None,A carpenter builds things with wood.,6,88,676,88,,,,,,,,,,2017_Mar_14_0136,60.2384084655,reading_fluency,001,neww,
Y,None,Newly released movies are often shown at theaters.,6,89,677,89,,,,,,,,,,2017_Mar_14_0136,60.2384084655,reading_fluency,001,neww,
N,None,A magazine has only one page.,6,90,678,90,,,,,,,,,,2017_Mar_14_0136,60.2384084655,reading_fluency,001,neww,
Y,None,A photo album may hold many pictures.,6,91,679,91,,,,,,,,,,2017_Mar_14_0136,60.2384084655,reading_fluency,001,neww,
N,None,Most dogs can climb straight up steep walls.,6,92,680,92,,,,,,,,,,2017_Mar_14_0136,60.2384084655,reading_fluency,001,neww,
Y,None,A fence can provide a border around a property.,6,93,681,93,,,,,,,,,,2017_Mar_14_0136,60.2384084655,reading_fluency,001,neww,
N,None,Most modern houses do not have any doors or windows.,6,94,682,94,,,,,,,,,,2017_Mar_14_0136,60.2384084655,reading_fluency,001,neww,
Y,None,Some people make hotel reservations for only one night.,6,95,683,95,,,,,,,,,,2017_Mar_14_0136,60.2384084655,reading_fluency,001,neww,
Y,None,A talented athlete may enjoy several different sports.,6,96,684,96,,,,,,,,,,2017_Mar_14_0136,60.2384084655,reading_fluency,001,neww,
Y,None,People may use a map to find certain locations.,6,97,685,97,,,,,,,,,,2017_Mar_14_0136,60.2384084655,reading_fluency,001,neww,
Y,None,A bird can fly.,7,0,686,0,,,,,,,,,,2017_Mar_14_0136,60.2384084655,reading_fluency,001,neww,
N,None,Cats have five legs.,7,1,687,1,,,,,,,,,,2017_Mar_14_0136,60.2384084655,reading_fluency,001,neww,
Y,None,Some people have long hair,7,2,688,2,,,,,,,,,,2017_Mar_14_0136,60.2384084655,reading_fluency,001,neww,
Y,None,People have teeth.,7,3,689,3,,,,,,,,,,2017_Mar_14_0136,60.2384084655,reading_fluency,001,neww,
N,None,The sky is always brown and yellow.,7,4,690,4,,,,,,,,,,2017_Mar_14_0136,60.2384084655,reading_fluency,001,neww,
Y,None,A clock tells time.,7,5,691,5,,,,,,,,,,2017_Mar_14_0136,60.2384084655,reading_fluency,001,neww,
N,None,The color of grass is red.,7,6,692,6,,,,,,,,,,2017_Mar_14_0136,60.2384084655,reading_fluency,001,neww,
Y,None,A school bus has a driver.,7,7,693,7,,,,,,,,,,2017_Mar_14_0136,60.2384084655,reading_fluency,001,neww,
N,None,People like to drink gum.,7,8,694,8,,,,,,,,,,2017_Mar_14_0136,60.2384084655,reading_fluency,001,neww,
N,None,A butterfly has ten wings.,7,9,695,9,,,,,,,,,,2017_Mar_14_0136,60.2384084655,reading_fluency,001,neww,
N,None,A train goes on the road.,7,10,696,10,,,,,,,,,,2017_Mar_14_0136,60.2384084655,reading_fluency,001,neww,
Y,None,A banana is to eat.,7,11,697,11,,,,,,,,,,2017_Mar_14_0136,60.2384084655,reading_fluency,001,neww,
Y,None,Summer is a season of the year.,7,12,698,12,,,,,,,,,,2017_Mar_14_0136,60.2384084655,reading_fluency,001,neww,
N,None,Ants are very big.,7,13,699,13,,,,,,,,,,2017_Mar_14_0136,60.2384084655,reading_fluency,001,neww,
N,None,A fire is cold.,7,14,700,14,,,,,,,,,,2017_Mar_14_0136,60.2384084655,reading_fluency,001,neww,
N,None,A bus has wings,7,15,701,15,,,,,,,,,,2017_Mar_14_0136,60.2384084655,reading_fluency,001,neww,
N,None,The color of milk is pink.,7,16,702,16,,,,,,,,,,2017_Mar_14_0136,60.2384084655,reading_fluency,001,neww,
N,None,A flower grows in the sky.,7,17,703,17,,,,,,,,,,2017_Mar_14_0136,60.2384084655,reading_fluency,001,neww,
Y,None,A dog may bark at a cat.,7,18,704,18,,,,,,,,,,2017_Mar_14_0136,60.2384084655,reading_fluency,001,neww,
Y,None,A room in a house has walls.,7,19,705,19,,,,,,,,,,2017_Mar_14_0136,60.2384084655,reading_fluency,001,neww,
Y,None,Golf is a game that some people like to play.,7,20,706,20,,,,,,,,,,2017_Mar_14_0136,60.2384084655,reading_fluency,001,neww,
N,None,June is the month after March.,7,21,707,21,,,,,,,,,,2017_Mar_14_0136,60.2384084655,reading_fluency,001,neww,
N,None,Most dogs can fly over the tops of mountains.,7,22,708,22,,,,,,,,,,2017_Mar_14_0136,60.2384084655,reading_fluency,001,neww,
Y,None,Some people like to go swimming on hot days.,7,23,709,23,,,,,,,,,,2017_Mar_14_0136,60.2384084655,reading_fluency,001,neww,
Y,None,Most windows are made of glass.,7,24,710,24,,,,,,,,,,2017_Mar_14_0136,60.2384084655,reading_fluency,001,neww,
Y,None,A pen is for writing.,7,25,711,25,,,,,,,,,,2017_Mar_14_0136,60.2384084655,reading_fluency,001,neww,
N,None,Monkeys live in fish tanks.,7,26,712,26,,,,,,,,,,2017_Mar_14_0136,60.2384084655,reading_fluency,001,neww,
Y,None,An insect may live under a rock.,7,27,713,27,,,,,,,,,,2017_Mar_14_0136,60.2384084655,reading_fluency,001,neww,
N,None,A shoe goes on your head.,7,28,714,28,,,,,,,,,,2017_Mar_14_0136,60.2384084655,reading_fluency,001,neww,
Y,None,A frog may swim in a pond.,7,29,715,29,,,,,,,,,,2017_Mar_14_0136,60.2384084655,reading_fluency,001,neww,
Y,None,A beach by the ocean may have sand.,7,30,716,30,,,,,,,,,,2017_Mar_14_0136,60.2384084655,reading_fluency,001,neww,
N,None,May is the last day of the week.,7,31,717,31,,,,,,,,,,2017_Mar_14_0136,60.2384084655,reading_fluency,001,neww,
N,None,People sit on their hands at the dinner table.,7,32,718,32,,,,,,,,,,2017_Mar_14_0136,60.2384084655,reading_fluency,001,neww,
N,None,You can see only one color in a rainbow.,7,33,719,33,,,,,,,,,,2017_Mar_14_0136,60.2384084655,reading_fluency,001,neww,
Y,None,Cars have four wheels.,7,34,720,34,,,,,,,,,,2017_Mar_14_0136,60.2384084655,reading_fluency,001,neww,
N,None,The sun is smaller than an orange.,7,35,721,35,,,,,,,,,,2017_Mar_14_0136,60.2384084655,reading_fluency,001,neww,
Y,None,A bird may build a nest.,7,36,722,36,,,,,,,,,,2017_Mar_14_0136,60.2384084655,reading_fluency,001,neww,
N,None,All mountains are very flat on top.,7,37,723,37,,,,,,,,,,2017_Mar_14_0136,60.2384084655,reading_fluency,001,neww,
Y,None,You can drink milk through a straw.,7,38,724,38,,,,,,,,,,2017_Mar_14_0136,60.2384084655,reading_fluency,001,neww,
N,None,A map is used to help you find phone numbers.,7,39,725,39,,,,,,,,,,2017_Mar_14_0136,60.2384084655,reading_fluency,001,neww,
Y,None,A hospital has more than one doctor.,7,40,726,40,,,,,,,,,,2017_Mar_14_0136,60.2384084655,reading_fluency,001,neww,
Y,None,Some people eat pie with a fork.,7,41,727,41,,,,,,,,,,2017_Mar_14_0136,60.2384084655,reading_fluency,001,neww,
Y,None,Some little babies cry when they are hungry.,7,42,728,42,,,,,,,,,,2017_Mar_14_0136,60.2384084655,reading_fluency,001,neww,
Y,None,Winter is a season of the year.,7,43,729,43,,,,,,,,,,2017_Mar_14_0136,60.2384084655,reading_fluency,001,neww,
N,None,A table has six arms.,7,44,730,44,,,,,,,,,,2017_Mar_14_0136,60.2384084655,reading_fluency,001,neww,
N,None,People serve dinner on their windows.,7,45,731,45,,,,,,,,,,2017_Mar_14_0136,60.2384084655,reading_fluency,001,neww,
Y,None,Many spiders can spin webs.,7,46,732,46,,,,,,,,,,2017_Mar_14_0136,60.2384084655,reading_fluency,001,neww,
Y,None,Some fish live in the ocean.,7,47,733,47,,,,,,,,,,2017_Mar_14_0136,60.2384084655,reading_fluency,001,neww,
Y,None,Some people buy new homes in small towns.,7,48,734,48,,,,,,,,,,2017_Mar_14_0136,60.2384084655,reading_fluency,001,neww,
Y,None,Some children fly kites on a windy day.,7,49,735,49,,,,,,,,,,2017_Mar_14_0136,60.2384084655,reading_fluency,001,neww,
N,None,A shoe is worn on your ear.,7,50,736,50,,,,,,,,,,2017_Mar_14_0136,60.2384084655,reading_fluency,001,neww,
Y,None,Some children enjoy watching cartoons on television.,7,51,737,51,,,,,,,,,,2017_Mar_14_0136,60.2384084655,reading_fluency,001,neww,
N,None,Snow is often green in color.,7,52,738,52,,,,,,,,,,2017_Mar_14_0136,60.2384084655,reading_fluency,001,neww,
N,None,A monkey is an insect that flies.,7,53,739,53,,,,,,,,,,2017_Mar_14_0136,60.2384084655,reading_fluency,001,neww,
Y,None,A door may have a lock.,7,54,740,54,,,,,,,,,,2017_Mar_14_0136,60.2384084655,reading_fluency,001,neww,
N,None,A hammer if often used to write a story.,7,55,741,55,,,,,,,,,,2017_Mar_14_0136,60.2384084655,reading_fluency,001,neww,
N,None,A plant's roots are above ground.,7,56,742,56,,,,,,,,,,2017_Mar_14_0136,60.2384084655,reading_fluency,001,neww,
Y,None,A dog may fight with another dog.,7,57,743,57,,,,,,,,,,2017_Mar_14_0136,60.2384084655,reading_fluency,001,neww,
N,None,A bicycle needs gas each day.,7,58,744,58,,,,,,,,,,2017_Mar_14_0136,60.2384084655,reading_fluency,001,neww,
N,None,Money is often used to start forest fires. ,7,59,745,59,,,,,,,,,,2017_Mar_14_0136,60.2384084655,reading_fluency,001,neww,
Y,None,One can travel faster on an airplane than on a bicycle.,7,60,746,60,,,,,,,,,,2017_Mar_14_0136,60.2384084655,reading_fluency,001,neww,
N,None,A cook works every day in a bank.,7,61,747,61,,,,,,,,,,2017_Mar_14_0136,60.2384084655,reading_fluency,001,neww,
N,None,Every year all cars need to have new engines.,7,62,748,62,,,,,,,,,,2017_Mar_14_0136,60.2384084655,reading_fluency,001,neww,
N,None,A baseball looks like a square.,7,63,749,63,,,,,,,,,,2017_Mar_14_0136,60.2384084655,reading_fluency,001,neww,
N,None,Doctors spend most of their time driving race cars.,7,64,750,64,,,,,,,,,,2017_Mar_14_0136,60.2384084655,reading_fluency,001,neww,
Y,None,Tennis is a game that some people like to play.,7,65,751,65,,,,,,,,,,2017_Mar_14_0136,60.2384084655,reading_fluency,001,neww,
N,None,Many people place pictures on the floors of their homes.,7,66,752,66,,,,,,,,,,2017_Mar_14_0136,60.2384084655,reading_fluency,001,neww,
N,None,A banker works in a kitchen.,7,67,753,67,,,,,,,,,,2017_Mar_14_0136,60.2384084655,reading_fluency,001,neww,
Y,None,A coat may be hung on a hanger in a closet.,7,68,754,68,,,,,,,,,,2017_Mar_14_0136,60.2384084655,reading_fluency,001,neww,
N,None,Glasses help people to hear.,7,69,755,69,,,,,,,,,,2017_Mar_14_0136,60.2384084655,reading_fluency,001,neww,
N,None,A camera is used to help you find your way.,7,70,756,70,,,,,,,,,,2017_Mar_14_0136,60.2384084655,reading_fluency,001,neww,
N,None,Tires are always flat.,7,71,757,71,,,,,,,,,,2017_Mar_14_0136,60.2384084655,reading_fluency,001,neww,
Y,None,A pitcher maybe used to pour water.,7,72,758,72,,,,,,,,,,2017_Mar_14_0136,60.2384084655,reading_fluency,001,neww,
N,None,A cup must have a lid.,7,73,759,73,,,,,,,,,,2017_Mar_14_0136,60.2384084655,reading_fluency,001,neww,
N,None,An elevator goes up to the moon.,7,74,760,74,,,,,,,,,,2017_Mar_14_0136,60.2384084655,reading_fluency,001,neww,
N,None,Most clouds are brown and furry.,7,75,761,75,,,,,,,,,,2017_Mar_14_0136,60.2384084655,reading_fluency,001,neww,
Y,None,There are many different types of jewelry.,7,76,762,76,,,,,,,,,,2017_Mar_14_0136,60.2384084655,reading_fluency,001,neww,
N,None,Most people use keys to comb their hair.,7,77,763,77,,,,,,,,,,2017_Mar_14_0136,60.2384084655,reading_fluency,001,neww,
Y,None,A calendar has both the weeks and days.,7,78,764,78,,,,,,,,,,2017_Mar_14_0136,60.2384084655,reading_fluency,001,neww,
Y,None,Some people like to go to another country for vacation.,7,79,765,79,,,,,,,,,,2017_Mar_14_0136,60.2384084655,reading_fluency,001,neww,
Y,None,A pencil may have an eraser on the end.,7,80,766,80,,,,,,,,,,2017_Mar_14_0136,60.2384084655,reading_fluency,001,neww,
N,None,A neighbor is a person who lives very far away.,7,81,767,81,,,,,,,,,,2017_Mar_14_0136,60.2384084655,reading_fluency,001,neww,
N,None,Bakes potatoes grow on trees.,7,82,768,82,,,,,,,,,,2017_Mar_14_0136,60.2384084655,reading_fluency,001,neww,
N,None,A classroom teacher works all day in a grocery store.,7,83,769,83,,,,,,,,,,2017_Mar_14_0136,60.2384084655,reading_fluency,001,neww,
Y,None,A flashlight may need batteries to operate.,7,84,770,84,,,,,,,,,,2017_Mar_14_0136,60.2384084655,reading_fluency,001,neww,
Y,None,Some people rent apartments in large cities.,7,85,771,85,,,,,,,,,,2017_Mar_14_0136,60.2384084655,reading_fluency,001,neww,
N,None,A goat talks in complete sentences. ,7,86,772,86,,,,,,,,,,2017_Mar_14_0136,60.2384084655,reading_fluency,001,neww,
N,None,All people avoid doctors when they feel sick.,7,87,773,87,,,,,,,,,,2017_Mar_14_0136,60.2384084655,reading_fluency,001,neww,
Y,None,A carpenter builds things with wood.,7,88,774,88,,,,,,,,,,2017_Mar_14_0136,60.2384084655,reading_fluency,001,neww,
Y,None,Newly released movies are often shown at theaters.,7,89,775,89,,,,,,,,,,2017_Mar_14_0136,60.2384084655,reading_fluency,001,neww,
N,None,A magazine has only one page.,7,90,776,90,,,,,,,,,,2017_Mar_14_0136,60.2384084655,reading_fluency,001,neww,
Y,None,A photo album may hold many pictures.,7,91,777,91,,,,,,,,,,2017_Mar_14_0136,60.2384084655,reading_fluency,001,neww,
N,None,Most dogs can climb straight up steep walls.,7,92,778,92,,,,,,,,,,2017_Mar_14_0136,60.2384084655,reading_fluency,001,neww,
Y,None,A fence can provide a border around a property.,7,93,779,93,,,,,,,,,,2017_Mar_14_0136,60.2384084655,reading_fluency,001,neww,
N,None,Most modern houses do not have any doors or windows.,7,94,780,94,,,,,,,,,,2017_Mar_14_0136,60.2384084655,reading_fluency,001,neww,
Y,None,Some people make hotel reservations for only one night.,7,95,781,95,,,,,,,,,,2017_Mar_14_0136,60.2384084655,reading_fluency,001,neww,
Y,None,A talented athlete may enjoy several different sports.,7,96,782,96,,,,,,,,,,2017_Mar_14_0136,60.2384084655,reading_fluency,001,neww,
Y,None,People may use a map to find certain locations.,7,97,783,97,,,,,,,,,,2017_Mar_14_0136,60.2384084655,reading_fluency,001,neww,
Y,None,A bird can fly.,8,0,784,0,,,,,,,,,,2017_Mar_14_0136,60.2384084655,reading_fluency,001,neww,
N,None,Cats have five legs.,8,1,785,1,,,,,,,,,,2017_Mar_14_0136,60.2384084655,reading_fluency,001,neww,
Y,None,Some people have long hair,8,2,786,2,,,,,,,,,,2017_Mar_14_0136,60.2384084655,reading_fluency,001,neww,
Y,None,People have teeth.,8,3,787,3,,,,,,,,,,2017_Mar_14_0136,60.2384084655,reading_fluency,001,neww,
N,None,The sky is always brown and yellow.,8,4,788,4,,,,,,,,,,2017_Mar_14_0136,60.2384084655,reading_fluency,001,neww,
Y,None,A clock tells time.,8,5,789,5,,,,,,,,,,2017_Mar_14_0136,60.2384084655,reading_fluency,001,neww,
N,None,The color of grass is red.,8,6,790,6,,,,,,,,,,2017_Mar_14_0136,60.2384084655,reading_fluency,001,neww,
Y,None,A school bus has a driver.,8,7,791,7,,,,,,,,,,2017_Mar_14_0136,60.2384084655,reading_fluency,001,neww,
N,None,People like to drink gum.,8,8,792,8,,,,,,,,,,2017_Mar_14_0136,60.2384084655,reading_fluency,001,neww,
N,None,A butterfly has ten wings.,8,9,793,9,,,,,,,,,,2017_Mar_14_0136,60.2384084655,reading_fluency,001,neww,
N,None,A train goes on the road.,8,10,794,10,,,,,,,,,,2017_Mar_14_0136,60.2384084655,reading_fluency,001,neww,
Y,None,A banana is to eat.,8,11,795,11,,,,,,,,,,2017_Mar_14_0136,60.2384084655,reading_fluency,001,neww,
Y,None,Summer is a season of the year.,8,12,796,12,,,,,,,,,,2017_Mar_14_0136,60.2384084655,reading_fluency,001,neww,
N,None,Ants are very big.,8,13,797,13,,,,,,,,,,2017_Mar_14_0136,60.2384084655,reading_fluency,001,neww,
N,None,A fire is cold.,8,14,798,14,,,,,,,,,,2017_Mar_14_0136,60.2384084655,reading_fluency,001,neww,
N,None,A bus has wings,8,15,799,15,,,,,,,,,,2017_Mar_14_0136,60.2384084655,reading_fluency,001,neww,
N,None,The color of milk is pink.,8,16,800,16,,,,,,,,,,2017_Mar_14_0136,60.2384084655,reading_fluency,001,neww,
N,None,A flower grows in the sky.,8,17,801,17,,,,,,,,,,2017_Mar_14_0136,60.2384084655,reading_fluency,001,neww,
Y,None,A dog may bark at a cat.,8,18,802,18,,,,,,,,,,2017_Mar_14_0136,60.2384084655,reading_fluency,001,neww,
Y,None,A room in a house has walls.,8,19,803,19,,,,,,,,,,2017_Mar_14_0136,60.2384084655,reading_fluency,001,neww,
Y,None,Golf is a game that some people like to play.,8,20,804,20,,,,,,,,,,2017_Mar_14_0136,60.2384084655,reading_fluency,001,neww,
N,None,June is the month after March.,8,21,805,21,,,,,,,,,,2017_Mar_14_0136,60.2384084655,reading_fluency,001,neww,
N,None,Most dogs can fly over the tops of mountains.,8,22,806,22,,,,,,,,,,2017_Mar_14_0136,60.2384084655,reading_fluency,001,neww,
Y,None,Some people like to go swimming on hot days.,8,23,807,23,,,,,,,,,,2017_Mar_14_0136,60.2384084655,reading_fluency,001,neww,
Y,None,Most windows are made of glass.,8,24,808,24,,,,,,,,,,2017_Mar_14_0136,60.2384084655,reading_fluency,001,neww,
Y,None,A pen is for writing.,8,25,809,25,,,,,,,,,,2017_Mar_14_0136,60.2384084655,reading_fluency,001,neww,
N,None,Monkeys live in fish tanks.,8,26,810,26,,,,,,,,,,2017_Mar_14_0136,60.2384084655,reading_fluency,001,neww,
Y,None,An insect may live under a rock.,8,27,811,27,,,,,,,,,,2017_Mar_14_0136,60.2384084655,reading_fluency,001,neww,
N,None,A shoe goes on your head.,8,28,812,28,,,,,,,,,,2017_Mar_14_0136,60.2384084655,reading_fluency,001,neww,
Y,None,A frog may swim in a pond.,8,29,813,29,,,,,,,,,,2017_Mar_14_0136,60.2384084655,reading_fluency,001,neww,
Y,None,A beach by the ocean may have sand.,8,30,814,30,,,,,,,,,,2017_Mar_14_0136,60.2384084655,reading_fluency,001,neww,
N,None,May is the last day of the week.,8,31,815,31,,,,,,,,,,2017_Mar_14_0136,60.2384084655,reading_fluency,001,neww,
N,None,People sit on their hands at the dinner table.,8,32,816,32,,,,,,,,,,2017_Mar_14_0136,60.2384084655,reading_fluency,001,neww,
N,None,You can see only one color in a rainbow.,8,33,817,33,,,,,,,,,,2017_Mar_14_0136,60.2384084655,reading_fluency,001,neww,
Y,None,Cars have four wheels.,8,34,818,34,,,,,,,,,,2017_Mar_14_0136,60.2384084655,reading_fluency,001,neww,
N,None,The sun is smaller than an orange.,8,35,819,35,,,,,,,,,,2017_Mar_14_0136,60.2384084655,reading_fluency,001,neww,
Y,None,A bird may build a nest.,8,36,820,36,,,,,,,,,,2017_Mar_14_0136,60.2384084655,reading_fluency,001,neww,
N,None,All mountains are very flat on top.,8,37,821,37,,,,,,,,,,2017_Mar_14_0136,60.2384084655,reading_fluency,001,neww,
Y,None,You can drink milk through a straw.,8,38,822,38,,,,,,,,,,2017_Mar_14_0136,60.2384084655,reading_fluency,001,neww,
N,None,A map is used to help you find phone numbers.,8,39,823,39,,,,,,,,,,2017_Mar_14_0136,60.2384084655,reading_fluency,001,neww,
Y,None,A hospital has more than one doctor.,8,40,824,40,,,,,,,,,,2017_Mar_14_0136,60.2384084655,reading_fluency,001,neww,
Y,None,Some people eat pie with a fork.,8,41,825,41,,,,,,,,,,2017_Mar_14_0136,60.2384084655,reading_fluency,001,neww,
Y,None,Some little babies cry when they are hungry.,8,42,826,42,,,,,,,,,,2017_Mar_14_0136,60.2384084655,reading_fluency,001,neww,
Y,None,Winter is a season of the year.,8,43,827,43,,,,,,,,,,2017_Mar_14_0136,60.2384084655,reading_fluency,001,neww,
N,None,A table has six arms.,8,44,828,44,,,,,,,,,,2017_Mar_14_0136,60.2384084655,reading_fluency,001,neww,
